"subid","age_group","age","sex","english","site","trial_type","trial_num","item_num","correct","rt"
"141204-01-sc",3,3.95,"M",6,"bing","practice",1,NA,"Y",7545
"141204-01-sc",3,3.95,"M",6,"bing","practice",2,NA,"Y",1610
"141204-01-sc",3,3.95,"M",6,"bing","control_single",3,"2vs2","Y",1997
"141204-01-sc",3,3.95,"M",6,"bing","inference",4,"3vs1","Y",1897
"141204-01-sc",3,3.95,"M",6,"bing","control_double",5,"3vs1","Y",3739
"141204-01-sc",3,3.95,"M",6,"bing","control_single",6,"1vs1","Y",1517
"141204-01-sc",3,3.95,"M",6,"bing","inference",7,"3vs1","N",15925
"141204-01-sc",3,3.95,"M",6,"bing","control_single",8,"1vs1","Y",3315
"141204-01-sc",3,3.95,"M",6,"bing","control_single",9,"2vs2","Y",2443
"141204-01-sc",3,3.95,"M",6,"bing","control_double",10,"2vs1","Y",2169
"141204-01-sc",3,3.95,"M",6,"bing","control_double",11,"3vs1","Y",3193
"141204-01-sc",3,3.95,"M",6,"bing","control_single",12,"1vs1","Y",2063
"141204-01-sc",3,3.95,"M",6,"bing","control_single",13,"2vs2","Y",2650
"141204-01-sc",3,3.95,"M",6,"bing","inference",14,"2vs1","Y",4229
"141204-01-sc",3,3.95,"M",6,"bing","control_single",15,"1vs1","Y",1967
"141204-01-sc",3,3.95,"M",6,"bing","control_double",16,"2vs1","Y",2199
"141204-02-sc",3,3.63,"F",6,"bing","practice",1,NA,"N",8396
"141204-02-sc",3,3.63,"F",6,"bing","practice",2,NA,"N",15659
"141204-02-sc",3,3.63,"F",6,"bing","control_single",3,"2vs2","Y",2041
"141204-02-sc",3,3.63,"F",6,"bing","inference",4,"2vs1","N",1639
"141204-02-sc",3,3.63,"F",6,"bing","control_double",5,"3vs1","Y",1656
"141204-02-sc",3,3.63,"F",6,"bing","control_single",6,"2vs2","N",2177
"141204-02-sc",3,3.63,"F",6,"bing","inference",7,"2vs1","Y",2541
"141204-02-sc",3,3.63,"F",6,"bing","control_single",8,"2vs2","Y",1655
"141204-02-sc",3,3.63,"F",6,"bing","control_single",9,"2vs2","Y",1671
"141204-02-sc",3,3.63,"F",6,"bing","control_double",10,"2vs1","Y",2272
"141204-02-sc",3,3.63,"F",6,"bing","control_double",11,"3vs1","Y",1728
"141204-02-sc",3,3.63,"F",6,"bing","control_single",12,"1vs1","Y",1727
"141204-02-sc",3,3.63,"F",6,"bing","control_single",13,"1vs1","Y",2293
"141204-02-sc",3,3.63,"F",6,"bing","inference",14,"3vs1","N",1929
"141204-02-sc",3,3.63,"F",6,"bing","control_single",15,"1vs1","Y",2015
"141204-02-sc",3,3.63,"F",6,"bing","control_double",16,"2vs1","Y",1839
"141204-03-sc",3,3.84,"F",6,"bing","practice",1,NA,"Y",6584
"141204-03-sc",3,3.84,"F",6,"bing","practice",2,NA,"Y",2177
"141204-03-sc",3,3.84,"F",6,"bing","control_single",3,"2vs2","Y",2253
"141204-03-sc",3,3.84,"F",6,"bing","inference",4,"3vs1","Y",2257
"141204-03-sc",3,3.84,"F",6,"bing","control_double",5,"3vs1","Y",3995
"141204-03-sc",3,3.84,"F",6,"bing","control_single",6,"1vs1","Y",1788
"141204-03-sc",3,3.84,"F",6,"bing","inference",7,"3vs1","N",31475
"141204-03-sc",3,3.84,"F",6,"bing","control_single",8,"1vs1","Y",2487
"141204-03-sc",3,3.84,"F",6,"bing","control_single",9,"2vs2","Y",2926
"141204-03-sc",3,3.84,"F",6,"bing","control_double",10,"2vs1","Y",2542
"141204-03-sc",3,3.84,"F",6,"bing","control_double",11,"3vs1","Y",1806
"141204-03-sc",3,3.84,"F",6,"bing","control_single",12,"1vs1","Y",1901
"141204-03-sc",3,3.84,"F",6,"bing","control_single",13,"2vs2","Y",1861
"141204-03-sc",3,3.84,"F",6,"bing","inference",14,"2vs1","Y",2214
"141204-03-sc",3,3.84,"F",6,"bing","control_single",15,"1vs1","Y",1392
"141204-03-sc",3,3.84,"F",6,"bing","control_double",16,"2vs1","Y",1355
"141204-04-sc",5,5.06,"F",6,"bing","practice",1,NA,"Y",2964
"141204-04-sc",5,5.06,"F",6,"bing","practice",2,NA,"Y",1684
"141204-04-sc",5,5.06,"F",6,"bing","control_single",3,"2vs2","Y",1550
"141204-04-sc",5,5.06,"F",6,"bing","inference",4,"3vs1","Y",1823
"141204-04-sc",5,5.06,"F",6,"bing","control_double",5,"3vs1","Y",3124
"141204-04-sc",5,5.06,"F",6,"bing","control_single",6,"1vs1","Y",1118
"141204-04-sc",5,5.06,"F",6,"bing","inference",7,"3vs1","Y",5615
"141204-04-sc",5,5.06,"F",6,"bing","control_single",8,"1vs1","Y",1688
"141204-04-sc",5,5.06,"F",6,"bing","control_single",9,"2vs2","Y",1713
"141204-04-sc",5,5.06,"F",6,"bing","control_double",10,"2vs1","Y",1388
"141204-04-sc",5,5.06,"F",6,"bing","control_double",11,"3vs1","Y",1225
"141204-04-sc",5,5.06,"F",6,"bing","control_single",12,"1vs1","Y",1073
"141204-04-sc",5,5.06,"F",6,"bing","control_single",13,"2vs2","Y",1486
"141204-04-sc",5,5.06,"F",6,"bing","inference",14,"2vs1","Y",743
"141204-04-sc",5,5.06,"F",6,"bing","control_single",15,"1vs1","Y",4623
"141204-04-sc",5,5.06,"F",6,"bing","control_double",16,"2vs1","Y",911
"141204-05-sc",3,3.83,"M",6,"bing","practice",1,NA,"Y",1755
"141204-05-sc",3,3.83,"M",6,"bing","practice",2,NA,"Y",1489
"141204-05-sc",3,3.83,"M",6,"bing","control_single",3,"2vs2","Y",2600
"141204-05-sc",3,3.83,"M",6,"bing","inference",4,"2vs1","Y",4792
"141204-05-sc",3,3.83,"M",6,"bing","control_double",5,"3vs1","Y",1622
"141204-05-sc",3,3.83,"M",6,"bing","control_single",6,"2vs2","Y",1556
"141204-05-sc",3,3.83,"M",6,"bing","inference",7,"2vs1","Y",1954
"141204-05-sc",3,3.83,"M",6,"bing","control_single",8,"2vs2","Y",2265
"141204-05-sc",3,3.83,"M",6,"bing","control_single",9,"2vs2","Y",1046
"141204-05-sc",3,3.83,"M",6,"bing","control_double",10,"2vs1","Y",1931
"141204-05-sc",3,3.83,"M",6,"bing","control_double",11,"3vs1","Y",2060
"141204-05-sc",3,3.83,"M",6,"bing","control_single",12,"1vs1","Y",2062
"141204-05-sc",3,3.83,"M",6,"bing","control_single",13,"1vs1","Y",1795
"141204-05-sc",3,3.83,"M",6,"bing","inference",14,"3vs1","Y",2021
"141204-05-sc",3,3.83,"M",6,"bing","control_single",15,"1vs1","Y",2090
"141204-05-sc",3,3.83,"M",6,"bing","control_double",16,"2vs1","Y",1793
"141204-06-sc",3,3.65,"F",6,"bing","practice",1,NA,"Y",1712
"141204-06-sc",3,3.65,"F",6,"bing","practice",2,NA,"Y",2780
"141204-06-sc",3,3.65,"F",6,"bing","control_single",3,"2vs2","Y",2140
"141204-06-sc",3,3.65,"F",6,"bing","inference",4,"2vs1","Y",2575
"141204-06-sc",3,3.65,"F",6,"bing","control_double",5,"3vs1","Y",5626
"141204-06-sc",3,3.65,"F",6,"bing","control_single",6,"2vs2","Y",1886
"141204-06-sc",3,3.65,"F",6,"bing","inference",7,"2vs1","Y",2644
"141204-06-sc",3,3.65,"F",6,"bing","control_single",8,"2vs2","Y",2080
"141204-06-sc",3,3.65,"F",6,"bing","control_single",9,"2vs2","Y",3306
"141204-06-sc",3,3.65,"F",6,"bing","control_double",10,"2vs1","Y",2096
"141204-06-sc",3,3.65,"F",6,"bing","control_double",11,"3vs1","Y",4955
"141204-06-sc",3,3.65,"F",6,"bing","control_single",12,"1vs1","Y",1585
"141204-06-sc",3,3.65,"F",6,"bing","control_single",13,"1vs1","Y",2372
"141204-06-sc",3,3.65,"F",6,"bing","inference",14,"3vs1","Y",2193
"141204-06-sc",3,3.65,"F",6,"bing","control_single",15,"1vs1","Y",2316
"141204-06-sc",3,3.65,"F",6,"bing","control_double",16,"2vs1","Y",3369
"141209-01-sc",3,3.35,"M",6,"bing","practice",1,NA,"Y",3394
"141209-01-sc",3,3.35,"M",6,"bing","practice",2,NA,"Y",2000
"141209-01-sc",3,3.35,"M",6,"bing","control_single",3,"2vs2","Y",1560
"141209-01-sc",3,3.35,"M",6,"bing","inference",4,"3vs1","Y",1801
"141209-01-sc",3,3.35,"M",6,"bing","control_double",5,"3vs1","Y",2989
"141209-01-sc",3,3.35,"M",6,"bing","control_single",6,"1vs1","Y",1755
"141209-01-sc",3,3.35,"M",6,"bing","inference",7,"3vs1","Y",5152
"141209-01-sc",3,3.35,"M",6,"bing","control_single",8,"1vs1","Y",2071
"141209-01-sc",3,3.35,"M",6,"bing","control_single",9,"2vs2","Y",1876
"141209-01-sc",3,3.35,"M",6,"bing","control_double",10,"2vs1","Y",3940
"141209-01-sc",3,3.35,"M",6,"bing","control_double",11,"3vs1","Y",1994
"141209-01-sc",3,3.35,"M",6,"bing","control_single",12,"1vs1","Y",1405
"141209-01-sc",3,3.35,"M",6,"bing","control_single",13,"2vs2","Y",1432
"141209-01-sc",3,3.35,"M",6,"bing","inference",14,"2vs1","Y",1531
"141209-01-sc",3,3.35,"M",6,"bing","control_single",15,"1vs1","Y",2079
"141209-01-sc",3,3.35,"M",6,"bing","control_double",16,"2vs1","Y",1904
"141209-01-sc",3,3.35,"M",6,"bing","inference",17,"2vs1","Y",1747
"141209-01-sc",3,3.35,"M",6,"bing","control_single",18,"2vs2","Y",2121
"141209-02-sc",4,4.82,"M",6,"bing","practice",1,NA,"Y",8727
"141209-02-sc",4,4.82,"M",6,"bing","practice",2,NA,"Y",1400
"141209-02-sc",4,4.82,"M",6,"bing","control_single",3,"2vs2","Y",2085
"141209-02-sc",4,4.82,"M",6,"bing","inference",4,"2vs1","Y",2613
"141209-02-sc",4,4.82,"M",6,"bing","control_double",5,"3vs1","Y",1639
"141209-02-sc",4,4.82,"M",6,"bing","control_single",6,"2vs2","Y",1830
"141209-02-sc",4,4.82,"M",6,"bing","inference",7,"2vs1","Y",2694
"141209-02-sc",4,4.82,"M",6,"bing","control_single",8,"2vs2","Y",2660
"141209-02-sc",4,4.82,"M",6,"bing","control_single",9,"2vs2","Y",1786
"141209-02-sc",4,4.82,"M",6,"bing","control_double",10,"2vs1","Y",1584
"141209-02-sc",4,4.82,"M",6,"bing","control_double",11,"3vs1","Y",2287
"141209-02-sc",4,4.82,"M",6,"bing","control_single",12,"1vs1","Y",1633
"141209-02-sc",4,4.82,"M",6,"bing","control_single",13,"1vs1","N",1627
"141209-02-sc",4,4.82,"M",6,"bing","inference",14,"3vs1","Y",1543
"141209-02-sc",4,4.82,"M",6,"bing","control_single",15,"1vs1","Y",1863
"141209-02-sc",4,4.82,"M",6,"bing","control_double",16,"2vs1","Y",1941
"141209-02-sc",4,4.82,"M",6,"bing","inference",17,"3vs1","Y",1469
"141209-02-sc",4,4.82,"M",6,"bing","control_single",18,"1vs1","Y",1170
"141209-03-sc",3,3.39,"F",6,"bing","practice",1,NA,"N",2112
"141209-03-sc",3,3.39,"F",6,"bing","practice",2,NA,"Y",1668
"141209-03-sc",3,3.39,"F",6,"bing","control_single",3,"2vs2","Y",2272
"141209-03-sc",3,3.39,"F",6,"bing","inference",4,"2vs1","Y",2032
"141209-03-sc",3,3.39,"F",6,"bing","control_double",5,"3vs1","Y",2212
"141209-03-sc",3,3.39,"F",6,"bing","control_single",6,"2vs2","Y",1580
"141209-03-sc",3,3.39,"F",6,"bing","inference",7,"2vs1","Y",2231
"141209-03-sc",3,3.39,"F",6,"bing","control_single",8,"2vs2","Y",2306
"141209-03-sc",3,3.39,"F",6,"bing","control_single",9,"2vs2","Y",1812
"141209-03-sc",3,3.39,"F",6,"bing","control_double",10,"2vs1","Y",1323
"141209-03-sc",3,3.39,"F",6,"bing","control_double",11,"3vs1","Y",1868
"141209-03-sc",3,3.39,"F",6,"bing","control_single",12,"1vs1","Y",1383
"141209-03-sc",3,3.39,"F",6,"bing","control_single",13,"1vs1","Y",2294
"141209-03-sc",3,3.39,"F",6,"bing","inference",14,"3vs1","Y",3974
"141209-03-sc",3,3.39,"F",6,"bing","control_single",15,"1vs1","Y",1330
"141209-03-sc",3,3.39,"F",6,"bing","control_double",16,"2vs1","Y",2560
"141209-03-sc",3,3.39,"F",6,"bing","inference",17,"3vs1","Y",1929
"141209-03-sc",3,3.39,"F",6,"bing","control_single",18,"1vs1","Y",1400
"141209-04-sc",5,5.21,"F",6,"bing","practice",1,NA,"Y",2382
"141209-04-sc",5,5.21,"F",6,"bing","practice",2,NA,"Y",1536
"141209-04-sc",5,5.21,"F",6,"bing","control_single",3,"2vs2","Y",2325
"141209-04-sc",5,5.21,"F",6,"bing","inference",4,"3vs1","Y",1825
"141209-04-sc",5,5.21,"F",6,"bing","control_double",5,"3vs1","Y",3153
"141209-04-sc",5,5.21,"F",6,"bing","control_single",6,"1vs1","Y",1545
"141209-04-sc",5,5.21,"F",6,"bing","inference",7,"3vs1","Y",1200
"141209-04-sc",5,5.21,"F",6,"bing","control_single",8,"1vs1","Y",1522
"141209-04-sc",5,5.21,"F",6,"bing","control_single",9,"2vs2","Y",1776
"141209-04-sc",5,5.21,"F",6,"bing","control_double",10,"2vs1","Y",1602
"141209-04-sc",5,5.21,"F",6,"bing","control_double",11,"3vs1","Y",1137
"141209-04-sc",5,5.21,"F",6,"bing","control_single",12,"1vs1","Y",1416
"141209-04-sc",5,5.21,"F",6,"bing","control_single",13,"2vs2","Y",1521
"141209-04-sc",5,5.21,"F",6,"bing","inference",14,"2vs1","Y",1391
"141209-04-sc",5,5.21,"F",6,"bing","control_single",15,"1vs1","Y",1776
"141209-04-sc",5,5.21,"F",6,"bing","control_double",16,"2vs1","Y",1323
"141209-05-sc",4,4.69,"F",6,"bing","practice",1,NA,"Y",3078
"141209-05-sc",4,4.69,"F",6,"bing","practice",2,NA,"Y",1640
"141209-05-sc",4,4.69,"F",6,"bing","control_single",3,"2vs2","Y",1456
"141209-05-sc",4,4.69,"F",6,"bing","inference",4,"2vs1","Y",2145
"141209-05-sc",4,4.69,"F",6,"bing","control_double",5,"3vs1","Y",1577
"141209-05-sc",4,4.69,"F",6,"bing","control_single",6,"2vs2","Y",1519
"141209-05-sc",4,4.69,"F",6,"bing","inference",7,"2vs1","Y",1782
"141209-05-sc",4,4.69,"F",6,"bing","control_single",8,"2vs2","Y",1350
"141209-05-sc",4,4.69,"F",6,"bing","control_single",9,"2vs2","Y",1509
"141209-05-sc",4,4.69,"F",6,"bing","control_double",10,"2vs1","Y",1898
"141209-05-sc",4,4.69,"F",6,"bing","control_double",11,"3vs1","Y",2229
"141209-05-sc",4,4.69,"F",6,"bing","control_single",12,"1vs1","Y",1540
"141209-05-sc",4,4.69,"F",6,"bing","control_single",13,"1vs1","Y",1252
"141209-05-sc",4,4.69,"F",6,"bing","inference",14,"3vs1","Y",1563
"141209-05-sc",4,4.69,"F",6,"bing","control_single",15,"1vs1","Y",1681
"141209-05-sc",4,4.69,"F",6,"bing","control_double",16,"2vs1","Y",1500
"141209-05-sc",4,4.69,"F",6,"bing","inference",17,"3vs1","Y",1613
"141209-05-sc",4,4.69,"F",6,"bing","control_single",18,"1vs1","Y",1835
"141209-06-sc",3,3.21,"F",6,"bing","practice",1,NA,"Y",2414
"141209-06-sc",3,3.21,"F",6,"bing","practice",2,NA,"Y",2215
"141209-06-sc",3,3.21,"F",6,"bing","control_single",3,"2vs2","Y",2286
"141209-06-sc",3,3.21,"F",6,"bing","inference",4,"2vs1","Y",1705
"141209-06-sc",3,3.21,"F",6,"bing","control_double",5,"3vs1","Y",2938
"141209-06-sc",3,3.21,"F",6,"bing","control_single",6,"2vs2","Y",1732
"141209-06-sc",3,3.21,"F",6,"bing","inference",7,"2vs1","Y",3608
"141209-06-sc",3,3.21,"F",6,"bing","control_single",8,"2vs2","Y",2066
"141209-06-sc",3,3.21,"F",6,"bing","control_single",9,"2vs2","Y",2058
"141209-06-sc",3,3.21,"F",6,"bing","control_double",10,"2vs1","Y",1434
"141209-06-sc",3,3.21,"F",6,"bing","control_double",11,"3vs1","Y",2225
"141209-06-sc",3,3.21,"F",6,"bing","control_single",12,"1vs1","Y",1627
"141209-06-sc",3,3.21,"F",6,"bing","control_single",13,"1vs1","Y",1773
"141209-06-sc",3,3.21,"F",6,"bing","inference",14,"3vs1","Y",1702
"141209-06-sc",3,3.21,"F",6,"bing","control_single",15,"1vs1","Y",4194
"141209-06-sc",3,3.21,"F",6,"bing","control_double",16,"2vs1","Y",1776
"141209-06-sc",3,3.21,"F",6,"bing","inference",17,"3vs1","Y",3611
"141209-06-sc",3,3.21,"F",6,"bing","control_single",18,"1vs1","Y",2542
"141209-07-sc",NA,NA,"M",6,"bing","practice",1,NA,"Y",7438
"141209-07-sc",NA,NA,"M",6,"bing","practice",2,NA,"Y",12108
"141209-07-sc",NA,NA,"M",6,"bing","control_single",3,"2vs2","Y",4711
"141209-07-sc",NA,NA,"M",6,"bing","inference",4,"3vs1","N",4836
"141209-07-sc",NA,NA,"M",6,"bing","control_double",5,"3vs1","N",3516
"141209-07-sc",NA,NA,"M",6,"bing","control_single",6,"1vs1","N",6480
"141209-07-sc",NA,NA,"M",6,"bing","inference",7,"3vs1","Y",3892
"141209-07-sc",NA,NA,"M",6,"bing","control_single",8,"1vs1","Y",1931
"141209-07-sc",NA,NA,"M",6,"bing","control_single",9,"2vs2","Y",3954
"141209-07-sc",NA,NA,"M",6,"bing","control_double",10,"2vs1","Y",3624
"141209-07-sc",NA,NA,"M",6,"bing","control_double",11,"3vs1","Y",2141
"141209-07-sc",NA,NA,"M",6,"bing","control_single",12,"1vs1","Y",1638
"141209-07-sc",NA,NA,"M",6,"bing","control_single",13,"2vs2","Y",1551
"141209-07-sc",NA,NA,"M",6,"bing","inference",14,"2vs1","Y",3701
"141209-07-sc",NA,NA,"M",6,"bing","control_single",15,"1vs1","Y",1285
"141209-07-sc",NA,NA,"M",6,"bing","control_double",16,"2vs1","Y",6407
"141209-07-sc",NA,NA,"M",6,"bing","inference",17,"2vs1","Y",1278
"141209-07-sc",NA,NA,"M",6,"bing","control_single",18,"2vs2","Y",1510
"150108-01-sc",4,4.55,"F",5,"bing","practice",1,NA,"Y",3292
"150108-01-sc",4,4.55,"F",5,"bing","practice",2,NA,"Y",1613
"150108-01-sc",4,4.55,"F",5,"bing","control_single",3,"2vs2","Y",2051
"150108-01-sc",4,4.55,"F",5,"bing","inference",4,"3vs1","Y",2174
"150108-01-sc",4,4.55,"F",5,"bing","control_double",5,"3vs1","Y",3865
"150108-01-sc",4,4.55,"F",5,"bing","control_single",6,"1vs1","Y",1380
"150108-01-sc",4,4.55,"F",5,"bing","inference",7,"3vs1","Y",2752
"150108-01-sc",4,4.55,"F",5,"bing","control_single",8,"1vs1","Y",1706
"150108-01-sc",4,4.55,"F",5,"bing","control_single",9,"2vs2","Y",2095
"150108-01-sc",4,4.55,"F",5,"bing","control_double",10,"2vs1","Y",2091
"150108-01-sc",4,4.55,"F",5,"bing","control_double",11,"3vs1","Y",1634
"150108-01-sc",4,4.55,"F",5,"bing","control_single",12,"1vs1","N",1063
"150108-01-sc",4,4.55,"F",5,"bing","control_single",13,"2vs2","Y",1164
"150108-01-sc",4,4.55,"F",5,"bing","inference",14,"2vs1","Y",2764
"150108-01-sc",4,4.55,"F",5,"bing","control_single",15,"1vs1","Y",1995
"150108-01-sc",4,4.55,"F",5,"bing","control_double",16,"2vs1","Y",1270
"150108-01-sc",4,4.55,"F",5,"bing","inference",17,"2vs1","N",1808
"150108-01-sc",4,4.55,"F",5,"bing","control_single",18,"2vs2","Y",4017
"150109-01-sc",2,2.08,"M",5,"cdm","practice",1,NA,"N",5764
"150109-01-sc",2,2.08,"M",5,"cdm","practice",2,NA,"Y",1979
"150109-01-sc",2,2.08,"M",5,"cdm","control_single",3,"2vs2","Y",2007
"150109-01-sc",2,2.08,"M",5,"cdm","inference",4,"3vs1","N",1936
"150109-01-sc",2,2.08,"M",5,"cdm","control_double",5,"3vs1","Y",3185
"150109-01-sc",2,2.08,"M",5,"cdm","control_single",6,"1vs1","N",5517
"150109-01-sc",2,2.08,"M",5,"cdm","inference",7,"3vs1","N",3159
"150109-01-sc",2,2.08,"M",5,"cdm","control_single",8,"1vs1","Y",4495
"150109-01-sc",2,2.08,"M",5,"cdm","control_single",9,"2vs2","N",3247
"150109-01-sc",2,2.08,"M",5,"cdm","control_double",10,"2vs1","Y",4436
"150109-01-sc",2,2.08,"M",5,"cdm","control_double",11,"3vs1","N",2816
"150109-01-sc",2,2.08,"M",5,"cdm","control_single",12,"1vs1","Y",2790
"150109-01-sc",2,2.08,"M",5,"cdm","control_single",13,"2vs2","Y",2808
"150109-01-sc",2,2.08,"M",5,"cdm","inference",14,"2vs1","Y",3718
"150109-01-sc",2,2.08,"M",5,"cdm","control_single",15,"1vs1","N",1734
"150109-01-sc",2,2.08,"M",5,"cdm","control_double",16,"2vs1","Y",4477
"150109-01-sc",2,2.08,"M",5,"cdm","inference",17,"2vs1","Y",2528
"150109-01-sc",2,2.08,"M",5,"cdm","control_single",18,"2vs2","Y",12611
"150109-02-sc",2,2.87,"F",6,"cdm","practice",1,NA,"Y",15480
"150109-02-sc",2,2.87,"F",6,"cdm","practice",2,NA,"Y",6951
"150109-02-sc",2,2.87,"F",6,"cdm","control_single",3,"2vs2","Y",8829
"150109-02-sc",2,2.87,"F",6,"cdm","inference",4,"2vs1","Y",3775
"150109-02-sc",2,2.87,"F",6,"cdm","control_double",5,"3vs1","Y",8715
"150109-02-sc",2,2.87,"F",6,"cdm","control_single",6,"2vs2","Y",5502
"150109-02-sc",2,2.87,"F",6,"cdm","inference",7,"2vs1","N",3308
"150109-02-sc",2,2.87,"F",6,"cdm","control_single",8,"2vs2","Y",2783
"150109-02-sc",2,2.87,"F",6,"cdm","control_single",9,"2vs2","Y",4994
"150109-02-sc",2,2.87,"F",6,"cdm","control_double",10,"2vs1","Y",3039
"150109-02-sc",2,2.87,"F",6,"cdm","control_double",11,"3vs1","N",4865
"150109-02-sc",2,2.87,"F",6,"cdm","control_single",12,"1vs1","Y",10287
"150109-02-sc",2,2.87,"F",6,"cdm","control_single",13,"1vs1","Y",3401
"150109-02-sc",2,2.87,"F",6,"cdm","inference",14,"3vs1","N",3646
"150109-02-sc",2,2.87,"F",6,"cdm","control_single",15,"1vs1","Y",2732
"150109-02-sc",2,2.87,"F",6,"cdm","control_double",16,"2vs1","Y",3498
"150109-02-sc",2,2.87,"F",6,"cdm","inference",17,"3vs1","N",3211
"150109-02-sc",2,2.87,"F",6,"cdm","control_single",18,"1vs1","Y",2922
"150109-03-sc",2,2.22,"M",6,"cdm","practice",1,NA,"Y",8562
"150109-03-sc",2,2.22,"M",6,"cdm","practice",2,NA,"Y",1860
"150109-03-sc",2,2.22,"M",6,"cdm","control_single",3,"2vs2","Y",2233
"150109-03-sc",2,2.22,"M",6,"cdm","inference",4,"3vs1","N",2670
"150109-03-sc",2,2.22,"M",6,"cdm","control_double",5,"3vs1","N",3478
"150109-03-sc",2,2.22,"M",6,"cdm","control_single",6,"1vs1","Y",25293
"150109-03-sc",2,2.22,"M",6,"cdm","inference",7,"3vs1","N",513
"150109-03-sc",2,2.22,"M",6,"cdm","control_single",8,"1vs1","Y",502
"150109-03-sc",2,2.22,"M",6,"cdm","control_single",9,"2vs2","Y",7177
"150109-03-sc",2,2.22,"M",6,"cdm","control_double",10,"2vs1","Y",3899
"150109-03-sc",2,2.22,"M",6,"cdm","control_double",11,"3vs1","Y",3167
"150109-03-sc",2,2.22,"M",6,"cdm","control_single",12,"1vs1","N",1319
"150109-03-sc",2,2.22,"M",6,"cdm","control_single",13,"2vs2","N",486
"150109-03-sc",2,2.22,"M",6,"cdm","inference",14,"2vs1","N",19087
"150109-03-sc",2,2.22,"M",6,"cdm","control_single",15,"1vs1","Y",3859
"150109-03-sc",2,2.22,"M",6,"cdm","control_double",16,"2vs1","N",5679
"150109-03-sc",2,2.22,"M",6,"cdm","inference",17,"2vs1","N",2713
"150109-03-sc",2,2.22,"M",6,"cdm","control_single",18,"2vs2","Y",1937
"150109-04",2,2.43,"F",6,"cdm","practice",1,NA,"Y",9651
"150109-04",2,2.43,"F",6,"cdm","practice",2,NA,"Y",1604
"150109-04",2,2.43,"F",6,"cdm","control_single",3,"2vs2","N",4264
"150109-04",2,2.43,"F",6,"cdm","inference",4,"3vs1","N",2419
"150109-04",2,2.43,"F",6,"cdm","control_double",5,"3vs1","Y",3400
"150109-04",2,2.43,"F",6,"cdm","control_single",6,"1vs1","Y",3941
"150109-04",2,2.43,"F",6,"cdm","inference",7,"3vs1","Y",2200
"150109-04",2,2.43,"F",6,"cdm","control_single",8,"1vs1","Y",5230
"150109-04",2,2.43,"F",6,"cdm","control_single",9,"2vs2","Y",4307
"150109-04",2,2.43,"F",6,"cdm","control_double",10,"2vs1","Y",2282
"150109-04",2,2.43,"F",6,"cdm","control_double",11,"3vs1","Y",2571
"150109-04",2,2.43,"F",6,"cdm","control_single",12,"1vs1","N",4045
"150109-04",2,2.43,"F",6,"cdm","control_single",13,"2vs2","Y",2668
"150109-04",2,2.43,"F",6,"cdm","inference",14,"2vs1","N",2619
"150109-04",2,2.43,"F",6,"cdm","control_single",15,"1vs1","Y",2241
"150109-04",2,2.43,"F",6,"cdm","control_double",16,"2vs1","Y",4718
"150109-04",2,2.43,"F",6,"cdm","inference",17,"2vs1","N",2206
"150109-04",2,2.43,"F",6,"cdm","control_single",18,"2vs2","Y",2947
"150109-05",2,2.16,"F",6,"cdm","practice",1,NA,"Y",12202
"150109-05",2,2.16,"F",6,"cdm","practice",2,NA,"N",5007
"150109-05",2,2.16,"F",6,"cdm","control_single",3,"2vs2","Y",708
"150109-05",2,2.16,"F",6,"cdm","inference",4,"2vs1","Y",9514
"150109-05",2,2.16,"F",6,"cdm","control_double",5,"3vs1","N",47585
"150109-05",2,2.16,"F",6,"cdm","control_single",6,"2vs2","N",101929
"150109-06",2,2.12,"F",6,"cdm","practice",1,NA,"Y",4294
"150109-06",2,2.12,"F",6,"cdm","practice",2,NA,"Y",7134
"150109-06",2,2.12,"F",6,"cdm","control_single",3,"2vs2","N",14770
"150109-06",2,2.12,"F",6,"cdm","inference",4,"3vs1","N",12571
"150109-06",2,2.12,"F",6,"cdm","control_single",5,"3vs1","Y",11540
"150109-06",2,2.12,"F",6,"cdm","control_double",6,"1vs1","Y",374
"150109-06",2,2.12,"F",6,"cdm","inference",7,"3vs1","Y",3108
"150109-06",2,2.12,"F",6,"cdm","control_single",8,"1vs1","N",1061
"150109-06",2,2.12,"F",6,"cdm","control_single",9,"2vs2","N",7530
"150109-06",2,2.12,"F",6,"cdm","control_double",10,"2vs1","Y",467
"150109-06",2,2.12,"F",6,"cdm","control_double",11,"3vs1","N",10744
"150109-06",2,2.12,"F",6,"cdm","control_single",12,"1vs1","Y",46788
"150109-06",2,2.12,"F",6,"cdm","control_single",13,"2vs2","Y",387
"150109-06",2,2.12,"F",6,"cdm","inference",14,"2vs1","Y",20429
"150109-06",2,2.12,"F",6,"cdm","control_single",15,"1vs1","N",506
"150109-06",2,2.12,"F",6,"cdm","control_double",16,"2vs1","Y",28133
"150109-06",2,2.12,"F",6,"cdm","inference",17,"2vs1","N",659
"150109-06",2,2.12,"F",6,"cdm","control_single",18,"2vs2","N",64324
"150109-07",3,3.1,"F",6,"cdm","practice",1,NA,"Y",2779
"150109-07",3,3.1,"F",6,"cdm","practice",2,NA,"N",7168
"150109-07",3,3.1,"F",6,"cdm","control_single",3,"2vs2","Y",2167
"150109-07",3,3.1,"F",6,"cdm","inference",4,"2vs1","Y",2868
"150109-07",3,3.1,"F",6,"cdm","control_double",5,"3vs1","N",7664
"150109-07",3,3.1,"F",6,"cdm","control_single",6,"2vs2","Y",5285
"150109-07",3,3.1,"F",6,"cdm","inference",7,"2vs1","N",4333
"150109-07",3,3.1,"F",6,"cdm","control_single",8,"2vs2","Y",2722
"150109-07",3,3.1,"F",6,"cdm","control_single",9,"2vs2","N",4892
"150109-07",3,3.1,"F",6,"cdm","control_double",10,"2vs1","Y",3064
"150109-07",3,3.1,"F",6,"cdm","control_double",11,"3vs1","N",2943
"150109-07",3,3.1,"F",6,"cdm","control_single",12,"1vs1","N",2675
"150109-07",3,3.1,"F",6,"cdm","control_single",13,"1vs1","Y",2724
"150109-07",3,3.1,"F",6,"cdm","inference",14,"3vs1","N",3131
"150109-07",3,3.1,"F",6,"cdm","control_single",15,"1vs1","Y",2094
"150109-07",3,3.1,"F",6,"cdm","control_double",16,"2vs1","Y",390
"150109-07",3,3.1,"F",6,"cdm","inference",17,"3vs1","Y",3344
"150109-07",3,3.1,"F",6,"cdm","control_single",18,"1vs1","Y",3497
"150109-08",4,4.36,"M",6,"cdm","practice",1,NA,"Y",2438
"150109-08",4,4.36,"M",6,"cdm","practice",2,NA,"Y",1618
"150109-08",4,4.36,"M",6,"cdm","control_single",3,"2vs2","Y",2928
"150109-08",4,4.36,"M",6,"cdm","inference",4,"2vs1","Y",2619
"150109-08",4,4.36,"M",6,"cdm","control_double",5,"3vs1","Y",1278
"150109-08",4,4.36,"M",6,"cdm","control_single",6,"2vs2","Y",1074
"150109-08",4,4.36,"M",6,"cdm","inference",7,"2vs1","Y",1850
"150109-08",4,4.36,"M",6,"cdm","control_single",8,"2vs2","Y",1281
"150109-08",4,4.36,"M",6,"cdm","control_single",9,"2vs2","Y",1353
"150109-08",4,4.36,"M",6,"cdm","control_double",10,"2vs1","Y",1591
"150109-08",4,4.36,"M",6,"cdm","control_double",11,"3vs1","Y",1895
"150109-08",4,4.36,"M",6,"cdm","control_single",12,"1vs1","Y",1425
"150109-08",4,4.36,"M",6,"cdm","control_single",13,"1vs1","Y",1158
"150109-08",4,4.36,"M",6,"cdm","inference",14,"3vs1","Y",1644
"150109-08",4,4.36,"M",6,"cdm","control_single",15,"1vs1","Y",1594
"150109-08",4,4.36,"M",6,"cdm","control_double",16,"2vs1","Y",1502
"150109-08",4,4.36,"M",6,"cdm","inference",17,"3vs1","Y",1928
"150109-08",4,4.36,"M",6,"cdm","control_single",18,"1vs1","Y",1573
"150115-01-sc",3,3.93,"F",6,"bing","practice",1,NA,"Y",1635
"150115-01-sc",3,3.93,"F",6,"bing","practice",2,NA,"Y",1446
"150115-01-sc",3,3.93,"F",6,"bing","control_single",3,"2vs2","Y",1624
"150115-01-sc",3,3.93,"F",6,"bing","inference",4,"2vs1","Y",2199
"150115-01-sc",3,3.93,"F",6,"bing","control_double",5,"3vs1","Y",1975
"150115-01-sc",3,3.93,"F",6,"bing","control_single",6,"2vs2","Y",1573
"150115-01-sc",3,3.93,"F",6,"bing","inference",7,"2vs1","Y",1855
"150115-01-sc",3,3.93,"F",6,"bing","control_single",8,"2vs2","Y",1187
"150115-01-sc",3,3.93,"F",6,"bing","control_single",9,"2vs2","Y",1900
"150115-01-sc",3,3.93,"F",6,"bing","control_double",10,"2vs1","Y",1545
"150115-01-sc",3,3.93,"F",6,"bing","control_double",11,"3vs1","Y",2266
"150115-01-sc",3,3.93,"F",6,"bing","control_single",12,"1vs1","Y",1481
"150115-01-sc",3,3.93,"F",6,"bing","control_single",13,"1vs1","Y",2065
"150115-01-sc",3,3.93,"F",6,"bing","inference",14,"3vs1","Y",1343
"150115-01-sc",3,3.93,"F",6,"bing","control_single",15,"1vs1","Y",1319
"150115-01-sc",3,3.93,"F",6,"bing","control_double",16,"2vs1","Y",1107
"150115-01-sc",3,3.93,"F",6,"bing","inference",17,"3vs1","Y",1513
"150115-01-sc",3,3.93,"F",6,"bing","control_single",18,"1vs1","Y",2144
"150115-02-sc",3,3.38,"F",6,"bing","practice",1,NA,"Y",6726
"150115-02-sc",3,3.38,"F",6,"bing","practice",2,NA,"Y",8991
"150115-02-sc",3,3.38,"F",6,"bing","control_single",3,"2vs2","Y",3393
"150115-02-sc",3,3.38,"F",6,"bing","inference",4,"3vs1","Y",11699
"150115-02-sc",3,3.38,"F",6,"bing","control_double",5,"3vs1","Y",3135
"150115-02-sc",3,3.38,"F",6,"bing","control_single",6,"1vs1","Y",2178
"150115-02-sc",3,3.38,"F",6,"bing","inference",7,"3vs1","N",8961
"150115-02-sc",3,3.38,"F",6,"bing","control_single",8,"1vs1","Y",1771
"150115-02-sc",3,3.38,"F",6,"bing","control_single",9,"2vs2","Y",2663
"150115-02-sc",3,3.38,"F",6,"bing","control_double",10,"2vs1","Y",2975
"150115-02-sc",3,3.38,"F",6,"bing","control_double",11,"3vs1","Y",2144
"150115-02-sc",3,3.38,"F",6,"bing","control_single",12,"1vs1","Y",3067
"150115-02-sc",3,3.38,"F",6,"bing","control_single",13,"2vs2","Y",2127
"150115-02-sc",3,3.38,"F",6,"bing","inference",14,"2vs1","Y",4926
"150115-02-sc",3,3.38,"F",6,"bing","control_single",15,"1vs1","Y",9185
"150115-02-sc",3,3.38,"F",6,"bing","control_double",16,"2vs1","Y",2162
"150115-02-sc",3,3.38,"F",6,"bing","inference",17,"2vs1","Y",1326
"150115-02-sc",3,3.38,"F",6,"bing","control_single",18,"2vs2","Y",5135
"150115-03-sc",4,4.8,"F",6,"bing","practice",1,NA,"Y",5666
"150115-03-sc",4,4.8,"F",6,"bing","practice",2,NA,"Y",3745
"150115-03-sc",4,4.8,"F",6,"bing","control_single",3,"2vs2","Y",2430
"150115-03-sc",4,4.8,"F",6,"bing","inference",4,"2vs1","Y",3677
"150115-03-sc",4,4.8,"F",6,"bing","control_double",5,"3vs1","Y",1489
"150115-03-sc",4,4.8,"F",6,"bing","control_single",6,"2vs2","Y",1434
"150115-03-sc",4,4.8,"F",6,"bing","inference",7,"2vs1","Y",3401
"150115-03-sc",4,4.8,"F",6,"bing","control_single",8,"2vs2","Y",1940
"150115-03-sc",4,4.8,"F",6,"bing","control_single",9,"2vs2","Y",1312
"150115-03-sc",4,4.8,"F",6,"bing","control_double",10,"2vs1","Y",2084
"150115-03-sc",4,4.8,"F",6,"bing","control_double",11,"3vs1","Y",2352
"150115-03-sc",4,4.8,"F",6,"bing","control_single",12,"1vs1","Y",1611
"150115-03-sc",4,4.8,"F",6,"bing","control_single",13,"1vs1","Y",1891
"150115-03-sc",4,4.8,"F",6,"bing","inference",14,"3vs1","Y",2447
"150115-03-sc",4,4.8,"F",6,"bing","control_single",15,"1vs1","Y",1883
"150115-03-sc",4,4.8,"F",6,"bing","control_double",16,"2vs1","Y",1703
"150115-03-sc",4,4.8,"F",6,"bing","inference",17,"3vs1","Y",2887
"150115-03-sc",4,4.8,"F",6,"bing","control_single",18,"1vs1","Y",1479
"150115-04-sc",4,4.67,"M",6,"bing","practice",1,NA,"Y",1902
"150115-04-sc",4,4.67,"M",6,"bing","practice",2,NA,"Y",1427
"150115-04-sc",4,4.67,"M",6,"bing","control_single",3,"2vs2","Y",1783
"150115-04-sc",4,4.67,"M",6,"bing","inference",4,"2vs1","Y",2061
"150115-04-sc",4,4.67,"M",6,"bing","control_double",5,"3vs1","Y",1981
"150115-04-sc",4,4.67,"M",6,"bing","control_single",6,"2vs2","Y",1742
"150115-04-sc",4,4.67,"M",6,"bing","inference",7,"2vs1","Y",4076
"150115-04-sc",4,4.67,"M",6,"bing","control_single",8,"2vs2","Y",2198
"150115-04-sc",4,4.67,"M",6,"bing","control_single",9,"2vs2","Y",4305
"150115-04-sc",4,4.67,"M",6,"bing","control_double",10,"2vs1","Y",3492
"150115-04-sc",4,4.67,"M",6,"bing","control_double",11,"3vs1","Y",2210
"150115-04-sc",4,4.67,"M",6,"bing","control_single",12,"1vs1","Y",2316
"150115-04-sc",4,4.67,"M",6,"bing","control_single",13,"1vs1","Y",3535
"150115-04-sc",4,4.67,"M",6,"bing","inference",14,"3vs1","Y",3281
"150115-04-sc",4,4.67,"M",6,"bing","control_single",15,"1vs1","Y",1705
"150115-04-sc",4,4.67,"M",6,"bing","control_double",16,"2vs1","Y",2287
"150115-04-sc",4,4.67,"M",6,"bing","inference",17,"3vs1","Y",1879
"150115-04-sc",4,4.67,"M",6,"bing","control_single",18,"1vs1","Y",1391
"150115-05-sc",5,5.27,"F",6,"bing","practice",1,NA,"Y",1871
"150115-05-sc",5,5.27,"F",6,"bing","practice",2,NA,"Y",1765
"150115-05-sc",5,5.27,"F",6,"bing","control_single",3,"2vs2","Y",1937
"150115-05-sc",5,5.27,"F",6,"bing","inference",4,"3vs1","Y",1768
"150115-05-sc",5,5.27,"F",6,"bing","control_double",5,"3vs1","Y",3864
"150115-05-sc",5,5.27,"F",6,"bing","control_single",6,"1vs1","N",2115
"150115-05-sc",5,5.27,"F",6,"bing","inference",7,"3vs1","Y",1718
"150115-05-sc",5,5.27,"F",6,"bing","control_single",8,"1vs1","Y",1777
"150115-05-sc",5,5.27,"F",6,"bing","control_single",9,"2vs2","Y",1539
"150115-05-sc",5,5.27,"F",6,"bing","control_double",10,"2vs1","Y",1316
"150115-05-sc",5,5.27,"F",6,"bing","control_double",11,"3vs1","Y",1547
"150115-05-sc",5,5.27,"F",6,"bing","control_single",12,"1vs1","Y",1462
"150115-05-sc",5,5.27,"F",6,"bing","control_single",13,"2vs2","Y",3259
"150115-05-sc",5,5.27,"F",6,"bing","inference",14,"2vs1","Y",19311
"150115-05-sc",5,5.27,"F",6,"bing","control_single",15,"1vs1","Y",1776
"150115-05-sc",5,5.27,"F",6,"bing","control_double",16,"2vs1","N",3550
"150115-05-sc",5,5.27,"F",6,"bing","inference",17,"2vs1","Y",2255
"150115-05-sc",5,5.27,"F",6,"bing","control_single",18,"2vs2","Y",1734
"150115-06-sc",3,3.72,"M",6,"bing","practice",1,NA,"N",5138
"150115-06-sc",3,3.72,"M",6,"bing","practice",2,NA,"Y",1397
"150115-06-sc",3,3.72,"M",6,"bing","control_single",3,"2vs2","N",1576
"150115-06-sc",3,3.72,"M",6,"bing","inference",4,"2vs1","N",526
"150115-06-sc",3,3.72,"M",6,"bing","control_double",5,"3vs1","Y",1724
"150115-06-sc",3,3.72,"M",6,"bing","control_single",6,"2vs2","N",1304
"150115-06-sc",3,3.72,"M",6,"bing","inference",7,"2vs1","N",2679
"150115-06-sc",3,3.72,"M",6,"bing","control_single",8,"2vs2","N",6113
"150115-06-sc",3,3.72,"M",6,"bing","control_single",9,"2vs2","Y",2192
"150115-06-sc",3,3.72,"M",6,"bing","control_double",10,"2vs1","N",2647
"150115-06-sc",3,3.72,"M",6,"bing","control_double",11,"3vs1","N",1717
"150115-06-sc",3,3.72,"M",6,"bing","control_single",12,"1vs1","Y",5290
"150115-06-sc",3,3.72,"M",6,"bing","control_single",13,"1vs1","Y",3340
"150115-06-sc",3,3.72,"M",6,"bing","inference",14,"3vs1","Y",3248
"150115-06-sc",3,3.72,"M",6,"bing","control_single",15,"1vs1","Y",2460
"150115-06-sc",3,3.72,"M",6,"bing","control_double",16,"2vs1","N",1344
"150115-06-sc",3,3.72,"M",6,"bing","inference",17,"3vs1","Y",7076
"150115-06-sc",3,3.72,"M",6,"bing","control_single",18,"1vs1","N",347
"150115-07-sc",5,5.13,"F",6,"bing","practice",1,NA,"Y",2635
"150115-07-sc",5,5.13,"F",6,"bing","practice",2,NA,"Y",1039
"150115-07-sc",5,5.13,"F",6,"bing","control_single",3,"2vs2","Y",1498
"150115-07-sc",5,5.13,"F",6,"bing","inference",4,"3vs1","Y",1758
"150115-07-sc",5,5.13,"F",6,"bing","control_double",5,"3vs1","Y",3633
"150115-07-sc",5,5.13,"F",6,"bing","control_single",6,"1vs1","Y",1476
"150115-07-sc",5,5.13,"F",6,"bing","inference",7,"3vs1","Y",2041
"150115-07-sc",5,5.13,"F",6,"bing","control_single",8,"1vs1","Y",1581
"150115-07-sc",5,5.13,"F",6,"bing","control_single",9,"2vs2","Y",2333
"150115-07-sc",5,5.13,"F",6,"bing","control_double",10,"2vs1","Y",1728
"150115-07-sc",5,5.13,"F",6,"bing","control_double",11,"3vs1","Y",1636
"150115-07-sc",5,5.13,"F",6,"bing","control_single",12,"1vs1","Y",1187
"150115-07-sc",5,5.13,"F",6,"bing","control_single",13,"2vs2","Y",1362
"150115-07-sc",5,5.13,"F",6,"bing","inference",14,"2vs1","Y",2346
"150115-07-sc",5,5.13,"F",6,"bing","control_single",15,"1vs1","Y",3192
"150115-07-sc",5,5.13,"F",6,"bing","control_double",16,"2vs1","Y",1502
"150115-07-sc",5,5.13,"F",6,"bing","inference",17,"2vs1","Y",1532
"150115-07-sc",5,5.13,"F",6,"bing","control_single",18,"2vs2","Y",2272
"150116-01-sc",5,5.39,"M",5,"cdm","practice",1,NA,"Y",5923
"150116-01-sc",5,5.39,"M",5,"cdm","practice",2,NA,"Y",2419
"150116-01-sc",5,5.39,"M",5,"cdm","control_single",3,"2vs2","Y",3083
"150116-01-sc",5,5.39,"M",5,"cdm","inference",4,"3vs1","Y",2397
"150116-01-sc",5,5.39,"M",5,"cdm","control_double",5,"3vs1","Y",3813
"150116-01-sc",5,5.39,"M",5,"cdm","control_single",6,"1vs1","Y",2222
"150116-01-sc",5,5.39,"M",5,"cdm","inference",7,"3vs1","N",3886
"150116-01-sc",5,5.39,"M",5,"cdm","control_single",8,"1vs1","Y",3030
"150116-01-sc",5,5.39,"M",5,"cdm","control_single",9,"2vs2","Y",2067
"150116-01-sc",5,5.39,"M",5,"cdm","control_double",10,"2vs1","Y",1640
"150116-01-sc",5,5.39,"M",5,"cdm","control_double",11,"3vs1","Y",2016
"150116-01-sc",5,5.39,"M",5,"cdm","control_single",12,"1vs1","Y",3186
"150116-01-sc",5,5.39,"M",5,"cdm","control_single",13,"2vs2","Y",1704
"150116-01-sc",5,5.39,"M",5,"cdm","inference",14,"2vs1","Y",1307
"150116-01-sc",5,5.39,"M",5,"cdm","control_single",15,"1vs1","Y",1138
"150116-01-sc",5,5.39,"M",5,"cdm","control_double",16,"2vs1","Y",1308
"150116-01-sc",5,5.39,"M",5,"cdm","inference",17,"2vs1","N",4223
"150116-02-sc",3,3.36,"M",6,"cdm","practice",1,NA,"Y",8087
"150116-02-sc",3,3.36,"M",6,"cdm","practice",2,NA,"Y",3423
"150116-02-sc",3,3.36,"M",6,"cdm","control_single",3,"2vs2","Y",2393
"150116-02-sc",3,3.36,"M",6,"cdm","inference",4,"2vs1","Y",3504
"150116-02-sc",3,3.36,"M",6,"cdm","control_double",5,"3vs1","Y",3024
"150116-02-sc",3,3.36,"M",6,"cdm","control_single",6,"2vs2","Y",2122
"150116-02-sc",3,3.36,"M",6,"cdm","inference",7,"2vs1","Y",3397
"150116-02-sc",3,3.36,"M",6,"cdm","control_single",8,"2vs2","Y",3957
"150116-02-sc",3,3.36,"M",6,"cdm","control_single",9,"2vs2","Y",2487
"150116-02-sc",3,3.36,"M",6,"cdm","control_double",10,"2vs1","Y",2145
"150116-02-sc",3,3.36,"M",6,"cdm","control_double",11,"3vs1","Y",3468
"150116-02-sc",3,3.36,"M",6,"cdm","control_single",12,"1vs1","Y",2530
"150116-02-sc",3,3.36,"M",6,"cdm","control_single",13,"1vs1","Y",2116
"150116-02-sc",3,3.36,"M",6,"cdm","inference",14,"3vs1","Y",3592
"150116-02-sc",3,3.36,"M",6,"cdm","control_single",15,"1vs1","Y",1811
"150116-02-sc",3,3.36,"M",6,"cdm","control_double",16,"2vs1","N",1796
"150116-03-sc",4,4.51,"M",6,"cdm","practice",1,NA,"Y",4959
"150116-03-sc",4,4.51,"M",6,"cdm","practice",2,NA,"Y",2413
"150116-03-sc",4,4.51,"M",6,"cdm","control_single",3,"2vs2","Y",2511
"150116-03-sc",4,4.51,"M",6,"cdm","inference",4,"3vs1","Y",4459
"150116-03-sc",4,4.51,"M",6,"cdm","control_double",5,"3vs1","Y",2994
"150116-03-sc",4,4.51,"M",6,"cdm","control_single",6,"1vs1","Y",2783
"150116-03-sc",4,4.51,"M",6,"cdm","inference",7,"3vs1","Y",1482
"150116-03-sc",4,4.51,"M",6,"cdm","control_single",8,"1vs1","Y",1454
"150116-03-sc",4,4.51,"M",6,"cdm","control_single",9,"2vs2","Y",944
"150116-03-sc",4,4.51,"M",6,"cdm","control_double",10,"2vs1","Y",1536
"150116-03-sc",4,4.51,"M",6,"cdm","control_double",11,"3vs1","Y",1459
"150116-03-sc",4,4.51,"M",6,"cdm","control_single",12,"1vs1","Y",1779
"150116-03-sc",4,4.51,"M",6,"cdm","control_single",13,"2vs2","Y",1956
"150116-03-sc",4,4.51,"M",6,"cdm","inference",14,"2vs1","Y",1103
"150116-03-sc",4,4.51,"M",6,"cdm","control_single",15,"1vs1","Y",947
"150116-03-sc",4,4.51,"M",6,"cdm","control_double",16,"2vs1","Y",1239
"150116-03-sc",4,4.51,"M",6,"cdm","inference",17,"2vs1","Y",1404
"150116-03-sc",4,4.51,"M",6,"cdm","control_single",18,"2vs2","Y",1650
"150116-04-sc",3,3.44,"M",6,"cdm","practice",1,NA,"Y",3198
"150116-04-sc",3,3.44,"M",6,"cdm","practice",2,NA,"Y",3405
"150116-04-sc",3,3.44,"M",6,"cdm","control_single",3,"2vs2","N",3211
"150116-04-sc",3,3.44,"M",6,"cdm","inference",4,"2vs1","N",7063
"150116-04-sc",3,3.44,"M",6,"cdm","control_double",5,"3vs1","Y",4420
"150116-04-sc",3,3.44,"M",6,"cdm","control_single",6,"2vs2","Y",4031
"150116-04-sc",3,3.44,"M",6,"cdm","inference",7,"2vs1","N",4155
"150116-04-sc",3,3.44,"M",6,"cdm","control_single",8,"2vs2","Y",13311
"150116-04-sc",3,3.44,"M",6,"cdm","control_single",9,"2vs2","Y",5973
"150116-04-sc",3,3.44,"M",6,"cdm","control_double",10,"2vs1","Y",3685
"150116-04-sc",3,3.44,"M",6,"cdm","control_double",11,"3vs1","Y",6330
"150116-04-sc",3,3.44,"M",6,"cdm","control_single",12,"1vs1","Y",3281
"150116-04-sc",3,3.44,"M",6,"cdm","control_single",13,"1vs1","Y",4234
"150116-04-sc",3,3.44,"M",6,"cdm","inference",14,"3vs1","N",4810
"150116-04-sc",3,3.44,"M",6,"cdm","control_single",15,"1vs1","Y",2340
"150116-04-sc",3,3.44,"M",6,"cdm","control_double",16,"2vs1","Y",5483
"150116-04-sc",3,3.44,"M",6,"cdm","inference",17,"3vs1","Y",2340
"150116-04-sc",3,3.44,"M",6,"cdm","control_single",18,"1vs1","Y",4416
"150116-05-sc",6,6.02,"F",6,"cdm","practice",1,NA,"Y",1146
"150116-05-sc",6,6.02,"F",6,"cdm","practice",2,NA,"Y",1246
"150116-05-sc",6,6.02,"F",6,"cdm","control_single",3,"2vs2","Y",1369
"150116-05-sc",6,6.02,"F",6,"cdm","inference",4,"3vs1","Y",7909
"150116-05-sc",6,6.02,"F",6,"cdm","control_double",5,"3vs1","Y",2269
"150116-05-sc",6,6.02,"F",6,"cdm","control_single",6,"1vs1","Y",1482
"150116-05-sc",6,6.02,"F",6,"cdm","inference",7,"3vs1","N",4974
"150116-05-sc",6,6.02,"F",6,"cdm","control_single",8,"1vs1","Y",1447
"150116-05-sc",6,6.02,"F",6,"cdm","control_single",9,"2vs2","Y",2487
"150116-05-sc",6,6.02,"F",6,"cdm","control_double",10,"2vs1","Y",1382
"150116-05-sc",6,6.02,"F",6,"cdm","control_double",11,"3vs1","Y",1515
"150116-05-sc",6,6.02,"F",6,"cdm","control_single",12,"1vs1","Y",1162
"150116-05-sc",6,6.02,"F",6,"cdm","control_single",13,"2vs2","Y",1050
"150116-05-sc",6,6.02,"F",6,"cdm","inference",14,"2vs1","N",2347
"150116-05-sc",6,6.02,"F",6,"cdm","control_single",15,"1vs1","Y",2035
"150116-05-sc",6,6.02,"F",6,"cdm","control_double",16,"2vs1","Y",1167
"150116-05-sc",6,6.02,"F",6,"cdm","inference",17,"2vs1","Y",4409
"150116-05-sc",6,6.02,"F",6,"cdm","control_single",18,"2vs2","Y",1648
"150116-07-sc",3,3.76,"F",6,"cdm","practice",1,NA,"Y",6448
"150116-07-sc",3,3.76,"F",6,"cdm","practice",2,NA,"Y",4662
"150116-07-sc",3,3.76,"F",6,"cdm","control_single",3,"2vs2","Y",3283
"150116-07-sc",3,3.76,"F",6,"cdm","inference",4,"3vs1","Y",2026
"150116-07-sc",3,3.76,"F",6,"cdm","control_double",5,"3vs1","Y",2995
"150116-07-sc",3,3.76,"F",6,"cdm","control_single",6,"1vs1","Y",2601
"150116-07-sc",3,3.76,"F",6,"cdm","inference",7,"3vs1","N",17717
"150116-07-sc",3,3.76,"F",6,"cdm","control_single",8,"1vs1","Y",2120
"150116-07-sc",3,3.76,"F",6,"cdm","control_single",9,"2vs2","Y",2003
"150116-07-sc",3,3.76,"F",6,"cdm","control_double",10,"2vs1","Y",5266
"150116-07-sc",3,3.76,"F",6,"cdm","control_double",11,"3vs1","Y",2718
"150116-07-sc",3,3.76,"F",6,"cdm","control_single",12,"1vs1","Y",2135
"150116-07-sc",3,3.76,"F",6,"cdm","control_single",13,"2vs2","Y",1729
"150116-07-sc",3,3.76,"F",6,"cdm","inference",14,"2vs1","Y",1501
"150116-07-sc",3,3.76,"F",6,"cdm","control_single",15,"1vs1","Y",1654
"150116-07-sc",3,3.76,"F",6,"cdm","control_double",16,"2vs1","Y",1753
"150116-07-sc",3,3.76,"F",6,"cdm","inference",17,"2vs1","N",1720
"150116-07-sc",3,3.76,"F",6,"cdm","control_single",18,"2vs2","Y",3051
"150116-08-sc",5,5.12,"F",6,"cdm","practice",1,NA,"Y",5415
"150116-08-sc",5,5.12,"F",6,"cdm","practice",2,NA,"Y",1680
"150116-08-sc",5,5.12,"F",6,"cdm","control_single",3,"2vs2","Y",1610
"150116-08-sc",5,5.12,"F",6,"cdm","inference",4,"2vs1","Y",2671
"150116-08-sc",5,5.12,"F",6,"cdm","control_double",5,"3vs1","Y",1632
"150116-08-sc",5,5.12,"F",6,"cdm","control_single",6,"2vs2","Y",1661
"150116-08-sc",5,5.12,"F",6,"cdm","inference",7,"2vs1","Y",1734
"150116-08-sc",5,5.12,"F",6,"cdm","control_single",8,"2vs2","Y",1845
"150116-08-sc",5,5.12,"F",6,"cdm","control_single",9,"2vs2","Y",1784
"150116-08-sc",5,5.12,"F",6,"cdm","control_double",10,"2vs1","Y",1468
"150116-08-sc",5,5.12,"F",6,"cdm","control_double",11,"3vs1","Y",2155
"150116-08-sc",5,5.12,"F",6,"cdm","control_single",12,"1vs1","Y",2439
"150116-08-sc",5,5.12,"F",6,"cdm","control_single",13,"1vs1","Y",2229
"150116-08-sc",5,5.12,"F",6,"cdm","inference",14,"3vs1","Y",2051
"150116-08-sc",5,5.12,"F",6,"cdm","control_single",15,"1vs1","Y",1481
"150116-08-sc",5,5.12,"F",6,"cdm","control_double",16,"2vs1","Y",1291
"150116-08-sc",5,5.12,"F",6,"cdm","inference",17,"3vs1","Y",1795
"150116-08-sc",5,5.12,"F",6,"cdm","control_single",18,"1vs1","Y",1118
"150116-09-sc",4,4.32,"F",6,"cdm","practice",1,NA,"Y",6309
"150116-09-sc",4,4.32,"F",6,"cdm","practice",2,NA,"Y",3355
"150116-09-sc",4,4.32,"F",6,"cdm","control_single",3,"2vs2","Y",5585
"150116-09-sc",4,4.32,"F",6,"cdm","inference",4,"2vs1","Y",6897
"150116-09-sc",4,4.32,"F",6,"cdm","control_double",5,"3vs1","Y",6028
"150116-09-sc",4,4.32,"F",6,"cdm","control_single",6,"2vs2","Y",2915
"150116-09-sc",4,4.32,"F",6,"cdm","inference",7,"2vs1","N",4544
"150116-09-sc",4,4.32,"F",6,"cdm","control_single",8,"2vs2","Y",3356
"150116-09-sc",4,4.32,"F",6,"cdm","control_single",9,"2vs2","Y",5123
"150116-09-sc",4,4.32,"F",6,"cdm","control_double",10,"2vs1","Y",6972
"150116-09-sc",4,4.32,"F",6,"cdm","control_double",11,"3vs1","Y",2757
"150116-09-sc",4,4.32,"F",6,"cdm","control_single",12,"1vs1","Y",3550
"150116-09-sc",4,4.32,"F",6,"cdm","control_single",13,"1vs1","Y",5432
"150116-09-sc",4,4.32,"F",6,"cdm","inference",14,"3vs1","N",8247
"150116-09-sc",4,4.32,"F",6,"cdm","control_single",15,"1vs1","Y",2787
"150116-09-sc",4,4.32,"F",6,"cdm","control_double",16,"2vs1","Y",3422
"150116-09-sc",4,4.32,"F",6,"cdm","inference",17,"3vs1","N",4592
"150116-09-sc",4,4.32,"F",6,"cdm","control_single",18,"1vs1","Y",2067
"150116-10-sc",4,4.03,"F",6,"cdm","practice",1,NA,"Y",1532
"150116-10-sc",4,4.03,"F",6,"cdm","practice",2,NA,"Y",2214
"150116-10-sc",4,4.03,"F",6,"cdm","control_single",3,"2vs2","Y",2264
"150116-10-sc",4,4.03,"F",6,"cdm","inference",4,"3vs1","Y",1833
"150116-10-sc",4,4.03,"F",6,"cdm","control_double",5,"3vs1","Y",2340
"150116-10-sc",4,4.03,"F",6,"cdm","control_single",6,"1vs1","Y",1342
"150116-10-sc",4,4.03,"F",6,"cdm","inference",7,"3vs1","Y",6172
"150116-10-sc",4,4.03,"F",6,"cdm","control_single",8,"1vs1","Y",2464
"150116-10-sc",4,4.03,"F",6,"cdm","control_single",9,"2vs2","Y",2640
"150116-10-sc",4,4.03,"F",6,"cdm","control_double",10,"2vs1","Y",1761
"150116-10-sc",4,4.03,"F",6,"cdm","control_double",11,"3vs1","Y",2107
"150116-10-sc",4,4.03,"F",6,"cdm","control_single",12,"1vs1","Y",1899
"150116-10-sc",4,4.03,"F",6,"cdm","control_single",13,"2vs2","Y",1630
"150116-10-sc",4,4.03,"F",6,"cdm","inference",14,"2vs1","Y",1640
"150116-10-sc",4,4.03,"F",6,"cdm","control_single",15,"1vs1","Y",2844
"150116-10-sc",4,4.03,"F",6,"cdm","control_double",16,"2vs1","Y",1773
"150116-10-sc",4,4.03,"F",6,"cdm","inference",17,"2vs1","Y",2402
"150116-10-sc",4,4.03,"F",6,"cdm","control_single",18,"2vs2","Y",1753
"150116-11-sc",4,4.21,"M",6,"cdm","practice",1,NA,"Y",1763
"150116-11-sc",4,4.21,"M",6,"cdm","practice",2,NA,"Y",1559
"150116-11-sc",4,4.21,"M",6,"cdm","control_single",3,"2vs2","Y",1595
"150116-11-sc",4,4.21,"M",6,"cdm","inference",4,"2vs1","Y",1419
"150116-11-sc",4,4.21,"M",6,"cdm","control_double",5,"3vs1","Y",1564
"150116-11-sc",4,4.21,"M",6,"cdm","control_single",6,"2vs2","Y",1191
"150116-11-sc",4,4.21,"M",6,"cdm","inference",7,"2vs1","Y",1521
"150116-11-sc",4,4.21,"M",6,"cdm","control_single",8,"2vs2","Y",1772
"150116-11-sc",4,4.21,"M",6,"cdm","control_single",9,"2vs2","Y",1205
"150116-11-sc",4,4.21,"M",6,"cdm","control_double",10,"2vs1","Y",1310
"150116-11-sc",4,4.21,"M",6,"cdm","control_double",11,"3vs1","Y",1525
"150116-11-sc",4,4.21,"M",6,"cdm","control_single",12,"1vs1","Y",1484
"150116-11-sc",4,4.21,"M",6,"cdm","control_single",13,"1vs1","Y",849
"150116-11-sc",4,4.21,"M",6,"cdm","inference",14,"3vs1","Y",1144
"150116-11-sc",4,4.21,"M",6,"cdm","control_single",15,"1vs1","Y",1186
"150116-11-sc",4,4.21,"M",6,"cdm","control_double",16,"2vs1","Y",2150
"150116-11-sc",4,4.21,"M",6,"cdm","inference",17,"3vs1","Y",957
"150116-11-sc",4,4.21,"M",6,"cdm","control_single",18,"1vs1","Y",1200
"150116-12-sc",4,4.93,"M",3,"cdm","practice",1,NA,"Y",6214
"150116-12-sc",4,4.93,"M",3,"cdm","practice",2,NA,"Y",2658
"150116-12-sc",4,4.93,"M",3,"cdm","control_single",3,"2vs2","Y",2295
"150116-12-sc",4,4.93,"M",3,"cdm","inference",4,"3vs1","Y",1890
"150116-12-sc",4,4.93,"M",3,"cdm","control_double",5,"3vs1","Y",1751
"150116-12-sc",4,4.93,"M",3,"cdm","control_single",6,"1vs1","Y",1183
"150116-12-sc",4,4.93,"M",3,"cdm","inference",7,"3vs1","Y",1584
"150116-12-sc",4,4.93,"M",3,"cdm","control_single",8,"1vs1","Y",1316
"150116-12-sc",4,4.93,"M",3,"cdm","control_single",9,"2vs2","Y",1656
"150116-12-sc",4,4.93,"M",3,"cdm","control_double",10,"2vs1","Y",1327
"150116-12-sc",4,4.93,"M",3,"cdm","control_double",11,"3vs1","Y",1317
"150116-12-sc",4,4.93,"M",3,"cdm","control_single",12,"1vs1","Y",1189
"150116-12-sc",4,4.93,"M",3,"cdm","control_single",13,"2vs2","Y",1309
"150116-12-sc",4,4.93,"M",3,"cdm","inference",14,"2vs1","Y",1219
"150116-12-sc",4,4.93,"M",3,"cdm","control_single",15,"1vs1","Y",1254
"150116-12-sc",4,4.93,"M",3,"cdm","control_double",16,"2vs1","Y",1386
"150116-12-sc",4,4.93,"M",3,"cdm","inference",17,"2vs1","Y",1604
"150116-12-sc",4,4.93,"M",3,"cdm","control_single",18,"2vs2","Y",1264
"150116-13-sc",4,4.76,"F",4,"cdm","practice",1,NA,"Y",1339
"150116-13-sc",4,4.76,"F",4,"cdm","practice",2,NA,"N",524
"150116-13-sc",4,4.76,"F",4,"cdm","control_single",3,"2vs2","Y",1252
"150116-13-sc",4,4.76,"F",4,"cdm","inference",4,"3vs1","N",1298
"150116-13-sc",4,4.76,"F",4,"cdm","control_double",5,"3vs1","Y",3121
"150116-13-sc",4,4.76,"F",4,"cdm","control_single",6,"1vs1","Y",1332
"150116-13-sc",4,4.76,"F",4,"cdm","inference",7,"3vs1","Y",12939
"150116-13-sc",4,4.76,"F",4,"cdm","control_single",8,"1vs1","Y",2077
"150116-13-sc",4,4.76,"F",4,"cdm","control_single",9,"2vs2","Y",3260
"150116-13-sc",4,4.76,"F",4,"cdm","control_double",10,"2vs1","Y",2292
"150116-13-sc",4,4.76,"F",4,"cdm","control_double",11,"3vs1","N",2848
"150116-14-sc",3,3.53,"F",3,"cdm","practice",1,NA,"Y",5252
"150116-14-sc",3,3.53,"F",3,"cdm","practice",2,NA,"Y",3003
"150116-14-sc",3,3.53,"F",3,"cdm","control_single",3,"2vs2","Y",3069
"150116-14-sc",3,3.53,"F",3,"cdm","inference",4,"2vs1","Y",2709
"150116-14-sc",3,3.53,"F",3,"cdm","control_double",5,"3vs1","Y",2517
"150116-14-sc",3,3.53,"F",3,"cdm","control_single",6,"2vs2","Y",2261
"150116-14-sc",3,3.53,"F",3,"cdm","inference",7,"2vs1","Y",2761
"150116-14-sc",3,3.53,"F",3,"cdm","control_single",8,"2vs2","Y",2166
"150116-14-sc",3,3.53,"F",3,"cdm","control_single",9,"2vs2","Y",1689
"150116-14-sc",3,3.53,"F",3,"cdm","control_double",10,"2vs1","Y",1545
"150116-14-sc",3,3.53,"F",3,"cdm","control_double",11,"3vs1","Y",1937
"150116-14-sc",3,3.53,"F",3,"cdm","control_single",12,"1vs1","Y",1982
"150116-14-sc",3,3.53,"F",3,"cdm","control_single",13,"1vs1","Y",6650
"150116-14-sc",3,3.53,"F",3,"cdm","inference",14,"3vs1","Y",1796
"150116-14-sc",3,3.53,"F",3,"cdm","control_single",15,"1vs1","Y",1498
"150116-14-sc",3,3.53,"F",3,"cdm","control_double",16,"2vs1","Y",2299
"150116-14-sc",3,3.53,"F",3,"cdm","control_single",18,"1vs1","Y",4371
"150116-14-sc",3,3.53,"F",3,"cdm","inference",17,"3vs1","Y",1441
"150116-15-sc",3,3.44,"F",6,"cdm","practice",1,NA,"Y",5080
"150116-15-sc",3,3.44,"F",6,"cdm","practice",2,NA,"Y",2196
"150116-15-sc",3,3.44,"F",6,"cdm","control_single",3,"2vs2","Y",2294
"150116-15-sc",3,3.44,"F",6,"cdm","inference",4,"3vs1","Y",3023
"150116-15-sc",3,3.44,"F",6,"cdm","control_double",5,"3vs1","Y",2970
"150116-15-sc",3,3.44,"F",6,"cdm","control_single",6,"1vs1","Y",2049
"150116-15-sc",3,3.44,"F",6,"cdm","inference",7,"3vs1","Y",2529
"150116-15-sc",3,3.44,"F",6,"cdm","control_single",8,"1vs1","Y",2829
"150116-15-sc",3,3.44,"F",6,"cdm","control_single",9,"2vs2","Y",2601
"150116-15-sc",3,3.44,"F",6,"cdm","control_double",10,"2vs1","Y",2995
"150116-15-sc",3,3.44,"F",6,"cdm","control_double",11,"3vs1","Y",2355
"150116-15-sc",3,3.44,"F",6,"cdm","control_single",12,"1vs1","Y",2265
"150116-15-sc",3,3.44,"F",6,"cdm","control_single",13,"2vs2","Y",2214
"150116-15-sc",3,3.44,"F",6,"cdm","inference",14,"2vs1","Y",1398
"150116-15-sc",3,3.44,"F",6,"cdm","control_single",15,"1vs1","Y",6291
"150116-16-sc",3,3.93,"F",6,"cdm","practice",1,NA,"Y",5078
"150116-16-sc",3,3.93,"F",6,"cdm","practice",2,NA,"Y",3396
"150116-16-sc",3,3.93,"F",6,"cdm","control_single",3,"2vs2","Y",2699
"150116-16-sc",3,3.93,"F",6,"cdm","inference",4,"2vs1","Y",2426
"150116-16-sc",3,3.93,"F",6,"cdm","control_double",5,"3vs1","Y",2318
"150116-16-sc",3,3.93,"F",6,"cdm","control_single",6,"2vs2","Y",1727
"150116-16-sc",3,3.93,"F",6,"cdm","inference",7,"2vs1","Y",1641
"150116-16-sc",3,3.93,"F",6,"cdm","control_single",8,"2vs2","Y",3939
"150116-16-sc",3,3.93,"F",6,"cdm","control_single",9,"2vs2","Y",2120
"150116-16-sc",3,3.93,"F",6,"cdm","control_double",10,"2vs1","Y",1561
"150116-16-sc",3,3.93,"F",6,"cdm","control_double",11,"3vs1","Y",2646
"150116-16-sc",3,3.93,"F",6,"cdm","control_single",12,"1vs1","Y",1384
"150116-16-sc",3,3.93,"F",6,"cdm","control_single",13,"1vs1","Y",1260
"150116-16-sc",3,3.93,"F",6,"cdm","inference",14,"3vs1","Y",1978
"150116-16-sc",3,3.93,"F",6,"cdm","control_single",15,"1vs1","Y",1672
"150116-16-sc",3,3.93,"F",6,"cdm","control_double",16,"2vs1","Y",2268
"150116-16-sc",3,3.93,"F",6,"cdm","inference",17,"3vs1","Y",1914
"150116-16-sc",3,3.93,"F",6,"cdm","control_single",18,"1vs1","Y",1852
"150116-17-sc",3,3.78,"M",6,"cdm","practice",1,NA,"Y",3021
"150116-17-sc",3,3.78,"M",6,"cdm","practice",2,NA,"Y",2627
"150116-17-sc",3,3.78,"M",6,"cdm","control_single",3,"2vs2","Y",1662
"150116-17-sc",3,3.78,"M",6,"cdm","inference",4,"3vs1","Y",1505
"150116-17-sc",3,3.78,"M",6,"cdm","control_double",5,"3vs1","Y",2177
"150116-17-sc",3,3.78,"M",6,"cdm","control_single",6,"1vs1","Y",2665
"150116-17-sc",3,3.78,"M",6,"cdm","inference",7,"3vs1","N",3450
"150116-17-sc",3,3.78,"M",6,"cdm","control_single",8,"1vs1","Y",1892
"150116-17-sc",3,3.78,"M",6,"cdm","control_single",9,"2vs2","Y",1756
"150116-17-sc",3,3.78,"M",6,"cdm","control_double",10,"2vs1","Y",1767
"150116-17-sc",3,3.78,"M",6,"cdm","control_double",11,"3vs1","Y",1755
"150116-17-sc",3,3.78,"M",6,"cdm","control_single",12,"1vs1","Y",1942
"150116-17-sc",3,3.78,"M",6,"cdm","control_single",13,"2vs2","Y",1805
"150116-17-sc",3,3.78,"M",6,"cdm","inference",14,"2vs1","Y",1933
"150116-17-sc",3,3.78,"M",6,"cdm","control_single",15,"1vs1","Y",924
"150116-17-sc",3,3.78,"M",6,"cdm","control_double",16,"2vs1","Y",2465
"150116-17-sc",3,3.78,"M",6,"cdm","inference",17,"2vs1","Y",1348
"150116-17-sc",3,3.78,"M",6,"cdm","control_single",18,"2vs2","Y",2743
"150116-18-sc",2,2.76,"F",6,"cdm","practice",1,NA,"Y",8908
"150116-18-sc",2,2.76,"F",6,"cdm","practice",2,NA,"Y",1717
"150116-18-sc",2,2.76,"F",6,"cdm","control_single",3,"2vs2","Y",1795
"150116-18-sc",2,2.76,"F",6,"cdm","inference",4,"2vs1","N",1589
"150116-18-sc",2,2.76,"F",6,"cdm","control_double",5,"3vs1","Y",5282
"150116-18-sc",2,2.76,"F",6,"cdm","control_single",6,"2vs2","Y",1681
"150116-18-sc",2,2.76,"F",6,"cdm","inference",7,"2vs1","N",1461
"150116-18-sc",2,2.76,"F",6,"cdm","control_single",8,"2vs2","Y",2115
"150116-18-sc",2,2.76,"F",6,"cdm","control_single",9,"2vs2","Y",1115
"150116-18-sc",2,2.76,"F",6,"cdm","control_double",10,"2vs1","Y",1702
"150116-18-sc",2,2.76,"F",6,"cdm","control_double",11,"3vs1","Y",1643
"150116-18-sc",2,2.76,"F",6,"cdm","control_single",12,"1vs1","Y",1614
"150116-18-sc",2,2.76,"F",6,"cdm","control_single",13,"1vs1","Y",2013
"150116-18-sc",2,2.76,"F",6,"cdm","inference",14,"3vs1","Y",1576
"150116-18-sc",2,2.76,"F",6,"cdm","control_single",15,"1vs1","Y",7377
"150116-18-sc",2,2.76,"F",6,"cdm","control_double",16,"2vs1","Y",1826
"150116-18-sc",2,2.76,"F",6,"cdm","inference",17,"3vs1","N",2091
"150116-18-sc",2,2.76,"F",6,"cdm","control_single",18,"1vs1","Y",1347
"150116-19-sc",3,3.03,"F",5,"cdm","practice",1,NA,"Y",3065
"150116-19-sc",3,3.03,"F",5,"cdm","practice",2,NA,"Y",2085
"150116-19-sc",3,3.03,"F",5,"cdm","control_single",3,"2vs2","Y",1909
"150116-19-sc",3,3.03,"F",5,"cdm","inference",4,"3vs1","Y",2084
"150116-19-sc",3,3.03,"F",5,"cdm","control_double",5,"3vs1","Y",4531
"150116-19-sc",3,3.03,"F",5,"cdm","control_single",6,"1vs1","Y",1785
"150116-19-sc",3,3.03,"F",5,"cdm","inference",7,"3vs1","Y",2763
"150116-19-sc",3,3.03,"F",5,"cdm","control_single",8,"1vs1","Y",7068
"150116-19-sc",3,3.03,"F",5,"cdm","control_single",9,"2vs2","Y",1345
"150116-19-sc",3,3.03,"F",5,"cdm","control_double",10,"2vs1","Y",2188
"150116-19-sc",3,3.03,"F",5,"cdm","control_double",11,"3vs1","Y",2411
"150116-19-sc",3,3.03,"F",5,"cdm","control_single",12,"1vs1","Y",1550
"150116-19-sc",3,3.03,"F",5,"cdm","control_single",13,"2vs2","Y",2345
"150116-19-sc",3,3.03,"F",5,"cdm","inference",14,"2vs1","Y",1001
"150116-19-sc",3,3.03,"F",5,"cdm","control_single",15,"1vs1","N",1044
"150116-19-sc",3,3.03,"F",5,"cdm","control_double",16,"2vs1","Y",1731
"150116-19-sc",3,3.03,"F",5,"cdm","inference",17,"2vs1","Y",1675
"150116-19-sc",3,3.03,"F",5,"cdm","control_single",18,"2vs2","Y",1815
"150116-20-sc",4,4.05,"M",6,"cdm","practice",1,NA,"Y",3940
"150116-20-sc",4,4.05,"M",6,"cdm","practice",2,NA,"Y",2842
"150116-20-sc",4,4.05,"M",6,"cdm","control_single",3,"2vs2","Y",2373
"150116-20-sc",4,4.05,"M",6,"cdm","inference",4,"2vs1","N",12271
"150116-20-sc",4,4.05,"M",6,"cdm","control_double",5,"3vs1","Y",9599
"150116-20-sc",4,4.05,"M",6,"cdm","control_single",6,"2vs2","Y",6383
"150116-20-sc",4,4.05,"M",6,"cdm","inference",7,"2vs1","N",10469
"150116-20-sc",4,4.05,"M",6,"cdm","control_single",8,"2vs2","Y",8767
"150116-20-sc",4,4.05,"M",6,"cdm","control_single",9,"2vs2","Y",2032
"150116-20-sc",4,4.05,"M",6,"cdm","control_double",10,"2vs1","Y",2158
"150116-20-sc",4,4.05,"M",6,"cdm","control_double",11,"3vs1","Y",2528
"150116-20-sc",4,4.05,"M",6,"cdm","control_single",12,"1vs1","Y",2344
"150116-20-sc",4,4.05,"M",6,"cdm","control_single",13,"1vs1","N",6751
"150116-20-sc",4,4.05,"M",6,"cdm","inference",14,"3vs1","Y",1960
"150116-20-sc",4,4.05,"M",6,"cdm","control_single",15,"1vs1","Y",6793
"150116-20-sc",4,4.05,"M",6,"cdm","control_double",16,"2vs1","N",5033
"150116-20-sc",4,4.05,"M",6,"cdm","inference",17,"3vs1","N",6411
"150116-20-sc",4,4.05,"M",6,"cdm","control_single",18,"1vs1","Y",626
"150116-21-sc",4,4.72,"M",6,"cdm","practice",1,NA,"Y",4963
"150116-21-sc",4,4.72,"M",6,"cdm","practice",2,NA,"Y",5357
"150116-21-sc",4,4.72,"M",6,"cdm","control_single",3,"2vs2","Y",2726
"150116-21-sc",4,4.72,"M",6,"cdm","inference",4,"3vs1","Y",1851
"150116-21-sc",4,4.72,"M",6,"cdm","control_double",5,"3vs1","Y",1299
"150116-21-sc",4,4.72,"M",6,"cdm","control_single",6,"1vs1","Y",3450
"150116-21-sc",4,4.72,"M",6,"cdm","inference",7,"3vs1","Y",3377
"150116-21-sc",4,4.72,"M",6,"cdm","control_single",8,"1vs1","Y",1523
"150116-21-sc",4,4.72,"M",6,"cdm","control_single",9,"2vs2","Y",2428
"150116-21-sc",4,4.72,"M",6,"cdm","control_double",10,"2vs1","Y",3656
"150116-21-sc",4,4.72,"M",6,"cdm","control_double",11,"3vs1","Y",1499
"150116-21-sc",4,4.72,"M",6,"cdm","control_single",12,"1vs1","Y",1608
"150116-21-sc",4,4.72,"M",6,"cdm","control_single",13,"2vs2","Y",2912
"150116-21-sc",4,4.72,"M",6,"cdm","inference",14,"2vs1","Y",1131
"150116-21-sc",4,4.72,"M",6,"cdm","control_single",15,"1vs1","Y",1222
"150116-21-sc",4,4.72,"M",6,"cdm","control_double",16,"2vs1","Y",1101
"150116-21-sc",4,4.72,"M",6,"cdm","inference",17,"2vs1","Y",1698
"150116-21-sc",4,4.72,"M",6,"cdm","control_single",18,"2vs2","Y",1672
"150116-22-sc",2,2.47,"F",6,"cdm","practice",1,NA,"Y",5244
"150116-22-sc",2,2.47,"F",6,"cdm","practice",2,NA,"Y",2862
"150116-22-sc",2,2.47,"F",6,"cdm","control_single",3,"2vs2","Y",2340
"150116-22-sc",2,2.47,"F",6,"cdm","inference",4,"2vs1","N",4203
"150116-22-sc",2,2.47,"F",6,"cdm","control_double",5,"3vs1","Y",1740
"150116-22-sc",2,2.47,"F",6,"cdm","control_single",6,"2vs2","Y",1331
"150116-22-sc",2,2.47,"F",6,"cdm","inference",7,"2vs1","Y",2043
"150116-22-sc",2,2.47,"F",6,"cdm","control_single",8,"2vs2","Y",2398
"150116-22-sc",2,2.47,"F",6,"cdm","control_single",9,"2vs2","Y",4761
"150116-22-sc",2,2.47,"F",6,"cdm","control_double",10,"2vs1","N",2449
"150116-22-sc",2,2.47,"F",6,"cdm","control_double",11,"3vs1","Y",3448
"150116-22-sc",2,2.47,"F",6,"cdm","control_single",12,"1vs1","Y",1800
"150116-22-sc",2,2.47,"F",6,"cdm","control_single",13,"1vs1","Y",7858
"150116-22-sc",2,2.47,"F",6,"cdm","inference",14,"3vs1","Y",2008
"150116-22-sc",2,2.47,"F",6,"cdm","control_single",15,"1vs1","Y",1880
"150116-22-sc",2,2.47,"F",6,"cdm","control_double",16,"2vs1","Y",2627
"150116-22-sc",2,2.47,"F",6,"cdm","inference",17,"3vs1","Y",2274
"150116-22-sc",2,2.47,"F",6,"cdm","control_single",18,"1vs1","Y",2972
"150120",NA,NA,NA,NA,NA,"practice",1,NA,"Y",8459
"150120",NA,NA,NA,NA,NA,"practice",2,NA,"Y",2614
"150120",NA,NA,NA,NA,NA,"control_single",3,"2vs2","Y",1915
"150120",NA,NA,NA,NA,NA,"inference",4,"3vs1","Y",11966
"150120",NA,NA,NA,NA,NA,"control_double",5,"3vs1","Y",3542
"150120",NA,NA,NA,NA,NA,"control_single",6,"1vs1","Y",1841
"150120",NA,NA,NA,NA,NA,"inference",7,"3vs1","Y",1750
"150120",NA,NA,NA,NA,NA,"control_single",8,"1vs1","Y",1643
"150120",NA,NA,NA,NA,NA,"control_single",9,"2vs2","Y",2254
"150120",NA,NA,NA,NA,NA,"control_double",10,"2vs1","Y",1855
"150120",NA,NA,NA,NA,NA,"control_double",11,"3vs1","Y",1348
"150120",NA,NA,NA,NA,NA,"control_single",12,"1vs1","Y",1214
"150120",NA,NA,NA,NA,NA,"control_single",13,"2vs2","Y",1116
"150120",NA,NA,NA,NA,NA,"inference",14,"2vs1","Y",4050
"150120",NA,NA,NA,NA,NA,"control_single",15,"1vs1","Y",1291
"150120",NA,NA,NA,NA,NA,"control_double",16,"2vs1","Y",2156
"150120",NA,NA,NA,NA,NA,"inference",17,"2vs1","Y",1693
"150120",NA,NA,NA,NA,NA,"control_single",18,"2vs2","Y",1771
"150120-01-sc",4,4.59,"F",6,"bing","practice",1,NA,"Y",1898
"150120-01-sc",4,4.59,"F",6,"bing","practice",2,NA,"Y",1158
"150120-01-sc",4,4.59,"F",6,"bing","control_single",3,"2vs2","Y",2243
"150120-01-sc",4,4.59,"F",6,"bing","inference",4,"2vs1","Y",1840
"150120-01-sc",4,4.59,"F",6,"bing","control_double",5,"3vs1","Y",2692
"150120-01-sc",4,4.59,"F",6,"bing","control_single",6,"2vs2","Y",1503
"150120-01-sc",4,4.59,"F",6,"bing","inference",7,"2vs1","Y",2222
"150120-01-sc",4,4.59,"F",6,"bing","control_single",8,"2vs2","Y",2253
"150120-01-sc",4,4.59,"F",6,"bing","control_single",9,"2vs2","Y",1361
"150120-01-sc",4,4.59,"F",6,"bing","control_double",10,"2vs1","Y",3006
"150120-01-sc",4,4.59,"F",6,"bing","control_double",11,"3vs1","N",2571
"150120-01-sc",4,4.59,"F",6,"bing","control_single",12,"1vs1","Y",3942
"150120-01-sc",4,4.59,"F",6,"bing","control_single",13,"1vs1","Y",3172
"150120-01-sc",4,4.59,"F",6,"bing","inference",14,"3vs1","Y",2083
"150120-01-sc",4,4.59,"F",6,"bing","control_single",15,"1vs1","Y",1552
"150120-01-sc",4,4.59,"F",6,"bing","control_double",16,"2vs1","N",3168
"150120-01-sc",4,4.59,"F",6,"bing","inference",17,"3vs1","Y",2409
"150120-01-sc",4,4.59,"F",6,"bing","control_single",18,"1vs1","N",1269
"150120-03-sc",4,4.01,"M",6,"bing","practice",1,NA,"Y",5699
"150120-03-sc",4,4.01,"M",6,"bing","practice",2,NA,"Y",2060
"150120-03-sc",4,4.01,"M",6,"bing","control_single",3,"2vs2","Y",1812
"150120-03-sc",4,4.01,"M",6,"bing","inference",4,"3vs1","Y",1463
"150120-03-sc",4,4.01,"M",6,"bing","control_double",5,"3vs1","Y",3009
"150120-03-sc",4,4.01,"M",6,"bing","control_single",6,"1vs1","Y",1988
"150120-03-sc",4,4.01,"M",6,"bing","inference",7,"3vs1","Y",5091
"150120-03-sc",4,4.01,"M",6,"bing","control_single",8,"1vs1","Y",1730
"150120-03-sc",4,4.01,"M",6,"bing","control_single",9,"2vs2","Y",1882
"150120-03-sc",4,4.01,"M",6,"bing","control_double",10,"2vs1","Y",2097
"150120-03-sc",4,4.01,"M",6,"bing","control_double",11,"3vs1","Y",1747
"150120-03-sc",4,4.01,"M",6,"bing","control_single",12,"1vs1","Y",1377
"150120-03-sc",4,4.01,"M",6,"bing","control_single",13,"2vs2","Y",2660
"150120-03-sc",4,4.01,"M",6,"bing","inference",14,"2vs1","Y",1629
"150120-03-sc",4,4.01,"M",6,"bing","control_single",15,"1vs1","Y",1495
"150120-03-sc",4,4.01,"M",6,"bing","control_double",16,"2vs1","Y",1533
"150120-03-sc",4,4.01,"M",6,"bing","inference",17,"2vs1","N",2040
"150120-03-sc",4,4.01,"M",6,"bing","control_single",18,"2vs2","Y",1742
"150120-04-sc",4,4.67,"M",6,"bing","practice",1,NA,"Y",1730
"150120-04-sc",4,4.67,"M",6,"bing","practice",2,NA,"Y",984
"150120-04-sc",4,4.67,"M",6,"bing","control_single",3,"2vs2","Y",2152
"150120-04-sc",4,4.67,"M",6,"bing","inference",4,"2vs1","Y",2459
"150120-04-sc",4,4.67,"M",6,"bing","control_double",5,"3vs1","N",1487
"150120-04-sc",4,4.67,"M",6,"bing","control_single",6,"2vs2","N",1185
"150120-04-sc",4,4.67,"M",6,"bing","inference",7,"2vs1","Y",2724
"150120-04-sc",4,4.67,"M",6,"bing","control_single",8,"2vs2","Y",2077
"150120-04-sc",4,4.67,"M",6,"bing","control_single",9,"2vs2","Y",649
"150120-04-sc",4,4.67,"M",6,"bing","control_double",10,"2vs1","Y",1769
"150120-04-sc",4,4.67,"M",6,"bing","control_double",11,"3vs1","Y",2379
"150120-04-sc",4,4.67,"M",6,"bing","control_single",12,"1vs1","Y",1417
"150120-04-sc",4,4.67,"M",6,"bing","control_single",13,"1vs1","Y",1194
"150120-04-sc",4,4.67,"M",6,"bing","inference",14,"3vs1","Y",1355
"150120-04-sc",4,4.67,"M",6,"bing","control_single",15,"1vs1","Y",1049
"150120-04-sc",4,4.67,"M",6,"bing","control_double",16,"2vs1","Y",1024
"150120-04-sc",4,4.67,"M",6,"bing","inference",17,"3vs1","Y",1417
"150120-04-sc",4,4.67,"M",6,"bing","control_single",18,"1vs1","Y",994
"150120-05-sc",3,3.85,"M",6,"bing","practice",1,NA,"N",4486
"150120-05-sc",3,3.85,"M",6,"bing","practice",2,NA,"Y",5249
"150120-05-sc",3,3.85,"M",6,"bing","control_single",3,"2vs2","Y",6768
"150120-05-sc",3,3.85,"M",6,"bing","inference",4,"2vs1","Y",3559
"150120-05-sc",3,3.85,"M",6,"bing","control_double",5,"3vs1","Y",3378
"150120-05-sc",3,3.85,"M",6,"bing","control_single",6,"2vs2","Y",2371
"150120-05-sc",3,3.85,"M",6,"bing","inference",7,"2vs1","Y",3165
"150120-05-sc",3,3.85,"M",6,"bing","control_single",8,"2vs2","Y",2720
"150120-05-sc",3,3.85,"M",6,"bing","control_single",9,"2vs2","Y",3924
"150120-05-sc",3,3.85,"M",6,"bing","control_double",10,"2vs1","Y",2384
"150120-05-sc",3,3.85,"M",6,"bing","control_double",11,"3vs1","Y",2412
"150120-05-sc",3,3.85,"M",6,"bing","control_single",12,"1vs1","Y",2864
"150120-05-sc",3,3.85,"M",6,"bing","control_single",13,"1vs1","Y",2280
"150120-05-sc",3,3.85,"M",6,"bing","inference",14,"3vs1","Y",2181
"150120-05-sc",3,3.85,"M",6,"bing","control_single",15,"1vs1","Y",2217
"150120-05-sc",3,3.85,"M",6,"bing","control_double",16,"2vs1","Y",2465
"150120-05-sc",3,3.85,"M",6,"bing","inference",17,"3vs1","N",4096
"150120-05-sc",3,3.85,"M",6,"bing","control_single",18,"1vs1","Y",3570
"150120-06-sc",4,4.67,"M",6,"bing","practice",1,NA,"Y",2317
"150120-06-sc",4,4.67,"M",6,"bing","practice",2,NA,"Y",1672
"150120-06-sc",4,4.67,"M",6,"bing","control_single",3,"2vs2","Y",1469
"150120-06-sc",4,4.67,"M",6,"bing","inference",4,"3vs1","Y",2563
"150120-06-sc",4,4.67,"M",6,"bing","control_double",5,"3vs1","Y",2313
"150120-06-sc",4,4.67,"M",6,"bing","control_single",6,"1vs1","Y",1132
"150120-06-sc",4,4.67,"M",6,"bing","inference",7,"3vs1","Y",5311
"150120-06-sc",4,4.67,"M",6,"bing","control_single",8,"1vs1","Y",1637
"150120-06-sc",4,4.67,"M",6,"bing","control_single",9,"2vs2","Y",1523
"150120-06-sc",4,4.67,"M",6,"bing","control_double",10,"2vs1","Y",2188
"150120-06-sc",4,4.67,"M",6,"bing","control_double",11,"3vs1","Y",2040
"150120-06-sc",4,4.67,"M",6,"bing","control_single",12,"1vs1","Y",1504
"150120-06-sc",4,4.67,"M",6,"bing","control_single",13,"2vs2","Y",1815
"150120-06-sc",4,4.67,"M",6,"bing","inference",14,"2vs1","Y",1649
"150120-06-sc",4,4.67,"M",6,"bing","control_single",15,"1vs1","Y",1218
"150120-06-sc",4,4.67,"M",6,"bing","control_double",16,"2vs1","Y",4086
"150120-06-sc",4,4.67,"M",6,"bing","inference",17,"2vs1","Y",1225
"150120-06-sc",4,4.67,"M",6,"bing","control_single",18,"2vs2","Y",1746
"150122-01-sc",4,4.1,"M",6,"bing","practice",1,NA,"Y",4750
"150122-01-sc",4,4.1,"M",6,"bing","practice",2,NA,"Y",3200
"150122-01-sc",4,4.1,"M",6,"bing","control_single",3,"2vs2","Y",2740
"150122-01-sc",4,4.1,"M",6,"bing","inference",4,"3vs1","Y",3322
"150122-01-sc",4,4.1,"M",6,"bing","control_double",5,"3vs1","Y",4867
"150122-01-sc",4,4.1,"M",6,"bing","control_single",6,"1vs1","Y",1461
"150122-01-sc",4,4.1,"M",6,"bing","inference",7,"3vs1","Y",6829
"150122-01-sc",4,4.1,"M",6,"bing","control_single",8,"1vs1","Y",2527
"150122-01-sc",4,4.1,"M",6,"bing","control_single",9,"2vs2","Y",2202
"150122-01-sc",4,4.1,"M",6,"bing","control_double",10,"2vs1","Y",2251
"150122-01-sc",4,4.1,"M",6,"bing","control_double",11,"3vs1","Y",2209
"150122-01-sc",4,4.1,"M",6,"bing","control_single",12,"1vs1","Y",2107
"150122-01-sc",4,4.1,"M",6,"bing","control_single",13,"2vs2","Y",1681
"150122-01-sc",4,4.1,"M",6,"bing","inference",14,"2vs1","Y",2417
"150122-01-sc",4,4.1,"M",6,"bing","control_single",15,"1vs1","Y",1373
"150122-01-sc",4,4.1,"M",6,"bing","control_double",16,"2vs1","Y",1395
"150122-01-sc",4,4.1,"M",6,"bing","inference",17,"2vs1","Y",1984
"150122-01-sc",4,4.1,"M",6,"bing","control_single",18,"2vs2","Y",2259
"150122-02-sc",4,4.28,"M",6,"bing","practice",1,NA,"Y",2062
"150122-02-sc",4,4.28,"M",6,"bing","practice",2,NA,"Y",1608
"150122-02-sc",4,4.28,"M",6,"bing","control_single",3,"2vs2","Y",2493
"150122-02-sc",4,4.28,"M",6,"bing","inference",4,"2vs1","Y",8764
"150122-02-sc",4,4.28,"M",6,"bing","control_double",5,"3vs1","Y",2005
"150122-02-sc",4,4.28,"M",6,"bing","control_single",6,"2vs2","Y",1650
"150122-02-sc",4,4.28,"M",6,"bing","inference",7,"2vs1","Y",2622
"150122-02-sc",4,4.28,"M",6,"bing","control_single",8,"2vs2","Y",2230
"150122-02-sc",4,4.28,"M",6,"bing","control_single",9,"2vs2","Y",2059
"150122-02-sc",4,4.28,"M",6,"bing","control_double",10,"2vs1","Y",2524
"150122-02-sc",4,4.28,"M",6,"bing","control_double",11,"3vs1","Y",1789
"150122-02-sc",4,4.28,"M",6,"bing","control_single",12,"1vs1","Y",2407
"150122-02-sc",4,4.28,"M",6,"bing","control_single",13,"1vs1","Y",1670
"150122-02-sc",4,4.28,"M",6,"bing","inference",14,"3vs1","Y",2108
"150122-02-sc",4,4.28,"M",6,"bing","control_single",15,"1vs1","Y",3553
"150122-02-sc",4,4.28,"M",6,"bing","control_double",16,"2vs1","Y",2172
"150122-02-sc",4,4.28,"M",6,"bing","inference",17,"3vs1","Y",2967
"150122-02-sc",4,4.28,"M",6,"bing","control_single",18,"1vs1","Y",1847
"150122-03-sc",3,3.92,"M",6,"bing","practice",1,NA,"Y",3630
"150122-03-sc",3,3.92,"M",6,"bing","practice",2,NA,"Y",2012
"150122-03-sc",3,3.92,"M",6,"bing","control_single",3,"2vs2","Y",2436
"150122-03-sc",3,3.92,"M",6,"bing","inference",4,"3vs1","Y",3002
"150122-03-sc",3,3.92,"M",6,"bing","control_double",5,"3vs1","Y",3313
"150122-03-sc",3,3.92,"M",6,"bing","control_single",6,"1vs1","Y",7768
"150122-03-sc",3,3.92,"M",6,"bing","inference",7,"3vs1","Y",9019
"150122-03-sc",3,3.92,"M",6,"bing","control_single",8,"1vs1","Y",2404
"150122-03-sc",3,3.92,"M",6,"bing","control_single",9,"2vs2","Y",3186
"150122-03-sc",3,3.92,"M",6,"bing","control_double",10,"2vs1","Y",3443
"150122-03-sc",3,3.92,"M",6,"bing","control_double",11,"3vs1","Y",10206
"150122-03-sc",3,3.92,"M",6,"bing","control_single",12,"1vs1","Y",2578
"150122-03-sc",3,3.92,"M",6,"bing","control_single",13,"2vs2","Y",2594
"150122-03-sc",3,3.92,"M",6,"bing","inference",14,"2vs1","N",7724
"150122-03-sc",3,3.92,"M",6,"bing","control_single",15,"1vs1","Y",1714
"150122-03-sc",3,3.92,"M",6,"bing","control_double",16,"2vs1","Y",3515
"150122-03-sc",3,3.92,"M",6,"bing","inference",17,"2vs1","Y",2729
"150122-03-sc",3,3.92,"M",6,"bing","control_single",18,"2vs2","Y",2032
"150122-04-sc",4,4.27,"M",6,"bing","practice",1,NA,"Y",3053
"150122-04-sc",4,4.27,"M",6,"bing","practice",2,NA,"Y",1548
"150122-04-sc",4,4.27,"M",6,"bing","control_single",3,"2vs2","Y",2091
"150122-04-sc",4,4.27,"M",6,"bing","inference",4,"2vs1","Y",3008
"150122-04-sc",4,4.27,"M",6,"bing","control_double",5,"3vs1","Y",1571
"150122-04-sc",4,4.27,"M",6,"bing","control_single",6,"2vs2","Y",1670
"150122-04-sc",4,4.27,"M",6,"bing","inference",7,"2vs1","N",5524
"150122-04-sc",4,4.27,"M",6,"bing","control_single",8,"2vs2","Y",2439
"150122-04-sc",4,4.27,"M",6,"bing","control_single",9,"2vs2","Y",1890
"150122-04-sc",4,4.27,"M",6,"bing","control_double",10,"2vs1","Y",1560
"150122-04-sc",4,4.27,"M",6,"bing","control_double",11,"3vs1","Y",1997
"150122-04-sc",4,4.27,"M",6,"bing","control_single",12,"1vs1","Y",1401
"150122-04-sc",4,4.27,"M",6,"bing","control_single",13,"1vs1","Y",2599
"150122-04-sc",4,4.27,"M",6,"bing","inference",14,"3vs1","Y",1821
"150122-04-sc",4,4.27,"M",6,"bing","control_single",15,"1vs1","Y",4348
"150122-04-sc",4,4.27,"M",6,"bing","control_double",16,"2vs1","Y",3162
"150122-04-sc",4,4.27,"M",6,"bing","inference",17,"3vs1","Y",2170
"150122-04-sc",4,4.27,"M",6,"bing","control_single",18,"1vs1","Y",1828
"150122-05-sc",4,4.17,"F",6,"bing","practice",1,NA,"Y",5299
"150122-05-sc",4,4.17,"F",6,"bing","practice",2,NA,"Y",2170
"150122-05-sc",4,4.17,"F",6,"bing","control_single",3,"2vs2","Y",3050
"150122-05-sc",4,4.17,"F",6,"bing","inference",4,"3vs1","Y",1990
"150122-05-sc",4,4.17,"F",6,"bing","control_double",5,"3vs1","Y",3187
"150122-05-sc",4,4.17,"F",6,"bing","control_single",6,"1vs1","Y",1976
"150122-05-sc",4,4.17,"F",6,"bing","inference",7,"3vs1","Y",1445
"150122-05-sc",4,4.17,"F",6,"bing","control_single",8,"1vs1","Y",2541
"150122-05-sc",4,4.17,"F",6,"bing","control_single",9,"2vs2","Y",2187
"150122-05-sc",4,4.17,"F",6,"bing","control_double",10,"2vs1","Y",2023
"150122-05-sc",4,4.17,"F",6,"bing","control_double",11,"3vs1","Y",1819
"150122-05-sc",4,4.17,"F",6,"bing","control_single",12,"1vs1","Y",2257
"150122-05-sc",4,4.17,"F",6,"bing","control_single",13,"2vs2","Y",1787
"150122-05-sc",4,4.17,"F",6,"bing","inference",14,"2vs1","Y",3517
"150122-05-sc",4,4.17,"F",6,"bing","control_single",15,"1vs1","Y",1506
"150122-05-sc",4,4.17,"F",6,"bing","control_double",16,"2vs1","Y",2532
"150122-05-sc",4,4.17,"F",6,"bing","inference",17,"2vs1","Y",2435
"150122-05-sc",4,4.17,"F",6,"bing","control_single",18,"2vs2","Y",1392
"150129-01-sc",4,4.84,"F",6,"bing","practice",1,NA,"Y",4091
"150129-01-sc",4,4.84,"F",6,"bing","practice",2,NA,"Y",1526
"150129-01-sc",4,4.84,"F",6,"bing","control_single",3,"2vs2","Y",2200
"150129-01-sc",4,4.84,"F",6,"bing","inference",4,"2vs1","Y",2702
"150129-01-sc",4,4.84,"F",6,"bing","control_double",5,"3vs1","Y",2704
"150129-01-sc",4,4.84,"F",6,"bing","control_single",6,"2vs2","Y",1439
"150129-01-sc",4,4.84,"F",6,"bing","inference",7,"2vs1","Y",2122
"150129-01-sc",4,4.84,"F",6,"bing","control_single",8,"2vs2","Y",2873
"150129-01-sc",4,4.84,"F",6,"bing","control_single",9,"2vs2","Y",1726
"150129-01-sc",4,4.84,"F",6,"bing","control_double",10,"2vs1","Y",1392
"150129-01-sc",4,4.84,"F",6,"bing","control_double",11,"3vs1","Y",2094
"150129-01-sc",4,4.84,"F",6,"bing","control_single",12,"1vs1","Y",2034
"150129-01-sc",4,4.84,"F",6,"bing","control_single",13,"1vs1","Y",1782
"150129-01-sc",4,4.84,"F",6,"bing","inference",14,"3vs1","Y",2054
"150129-01-sc",4,4.84,"F",6,"bing","control_single",15,"1vs1","Y",1638
"150129-01-sc",4,4.84,"F",6,"bing","control_double",16,"2vs1","N",4902
"150129-01-sc",4,4.84,"F",6,"bing","inference",17,"3vs1","Y",1683
"150129-01-sc",4,4.84,"F",6,"bing","control_single",18,"1vs1","Y",2881
"150129-02-sc",4,4.02,"M",6,"bing","practice",1,NA,"Y",6730
"150129-02-sc",4,4.02,"M",6,"bing","practice",2,NA,"Y",2916
"150129-02-sc",4,4.02,"M",6,"bing","control_single",3,"2vs2","Y",2679
"150129-02-sc",4,4.02,"M",6,"bing","inference",4,"3vs1","Y",3495
"150129-02-sc",4,4.02,"M",6,"bing","control_double",5,"3vs1","Y",3460
"150129-02-sc",4,4.02,"M",6,"bing","control_single",6,"1vs1","Y",2577
"150129-02-sc",4,4.02,"M",6,"bing","inference",7,"3vs1","Y",3056
"150129-02-sc",4,4.02,"M",6,"bing","control_single",8,"1vs1","Y",3259
"150129-02-sc",4,4.02,"M",6,"bing","control_single",9,"2vs2","Y",3254
"150129-02-sc",4,4.02,"M",6,"bing","control_double",10,"2vs1","Y",3218
"150129-02-sc",4,4.02,"M",6,"bing","control_double",11,"3vs1","Y",6913
"150129-02-sc",4,4.02,"M",6,"bing","control_single",12,"1vs1","Y",2600
"150129-02-sc",4,4.02,"M",6,"bing","control_single",13,"2vs2","Y",3095
"150129-02-sc",4,4.02,"M",6,"bing","inference",14,"2vs1","Y",2321
"150129-02-sc",4,4.02,"M",6,"bing","control_single",15,"1vs1","Y",4085
"150129-02-sc",4,4.02,"M",6,"bing","control_double",16,"2vs1","Y",2171
"150129-02-sc",4,4.02,"M",6,"bing","inference",17,"2vs1","Y",2084
"150129-02-sc",4,4.02,"M",6,"bing","control_single",18,"2vs2","Y",2431
"150217",NA,NA,NA,NA,NA,"practice",1,NA,"Y",1417
"150217",NA,NA,NA,NA,NA,"practice",2,NA,"Y",1345
"150217",NA,NA,NA,NA,NA,"control_single",3,"2vs2","Y",2772
"150217",NA,NA,NA,NA,NA,"inference",4,"3vs1","Y",2080
"150217",NA,NA,NA,NA,NA,"control_double",5,"3vs1","Y",2289
"150217",NA,NA,NA,NA,NA,"control_single",6,"1vs1","Y",1765
"150217",NA,NA,NA,NA,NA,"inference",7,"3vs1","Y",1807
"150217",NA,NA,NA,NA,NA,"control_single",8,"1vs1","Y",1216
"150217",NA,NA,NA,NA,NA,"control_single",9,"2vs2","Y",2003
"150217",NA,NA,NA,NA,NA,"control_double",10,"2vs1","Y",1573
"150217",NA,NA,NA,NA,NA,"control_double",11,"3vs1","Y",1675
"150217",NA,NA,NA,NA,NA,"control_single",12,"1vs1","Y",1473
"150217",NA,NA,NA,NA,NA,"control_single",13,"2vs2","Y",1624
"150217",NA,NA,NA,NA,NA,"inference",14,"2vs1","Y",1928
"150217",NA,NA,NA,NA,NA,"control_single",15,"1vs1","Y",1389
"150217",NA,NA,NA,NA,NA,"control_double",16,"2vs1","Y",1379
"150217",NA,NA,NA,NA,NA,"inference",17,"2vs1","Y",14728
"150217",NA,NA,NA,NA,NA,"control_single",18,"2vs2","Y",1616
"150219-01-sc",NA,NA,NA,NA,NA,"practice",1,NA,"Y",5612
"150219-01-sc",NA,NA,NA,NA,NA,"practice",2,NA,"Y",9402
"150219-01-sc",NA,NA,NA,NA,NA,"control_single",3,"2vs2","Y",2458
"150219-01-sc",NA,NA,NA,NA,NA,"inference",4,"2vs1","Y",3227
"150219-01-sc",NA,NA,NA,NA,NA,"control_double",5,"3vs1","Y",2007
"150219-01-sc",NA,NA,NA,NA,NA,"control_single",6,"2vs2","Y",1819
"150219-01-sc",NA,NA,NA,NA,NA,"inference",7,"2vs1","N",5535
"150219-01-sc",NA,NA,NA,NA,NA,"control_single",8,"2vs2","Y",1555
"150219-01-sc",NA,NA,NA,NA,NA,"control_single",9,"2vs2","Y",2300
"150219-01-sc",NA,NA,NA,NA,NA,"control_double",10,"2vs1","Y",1638
"150219-01-sc",NA,NA,NA,NA,NA,"control_double",11,"3vs1","Y",2700
"150219-01-sc",NA,NA,NA,NA,NA,"control_single",12,"1vs1","Y",1635
"150219-01-sc",NA,NA,NA,NA,NA,"control_single",13,"1vs1","Y",2226
"150219-01-sc",NA,NA,NA,NA,NA,"inference",14,"3vs1","Y",7177
"150219-01-sc",NA,NA,NA,NA,NA,"control_single",15,"1vs1","N",6044
"150219-01-sc",NA,NA,NA,NA,NA,"control_double",16,"2vs1","Y",1138
"150219-01-sc",NA,NA,NA,NA,NA,"inference",17,"3vs1","N",1622
"150219-01-sc",NA,NA,NA,NA,NA,"control_single",18,"1vs1","Y",1243
"150219-02-sc",NA,NA,NA,NA,NA,"practice",1,NA,"Y",6209
"150219-02-sc",NA,NA,NA,NA,NA,"practice",2,NA,"Y",1526
"150219-02-sc",NA,NA,NA,NA,NA,"control_single",3,"2vs2","Y",1494
"150219-02-sc",NA,NA,NA,NA,NA,"inference",4,"3vs1","Y",1197
"150219-02-sc",NA,NA,NA,NA,NA,"control_double",5,"3vs1","Y",1875
"150219-02-sc",NA,NA,NA,NA,NA,"control_single",6,"1vs1","Y",1027
"150219-02-sc",NA,NA,NA,NA,NA,"inference",7,"3vs1","N",948
"150219-02-sc",NA,NA,NA,NA,NA,"control_single",8,"1vs1","Y",1059
"150219-02-sc",NA,NA,NA,NA,NA,"control_single",9,"2vs2","Y",1516
"150219-02-sc",NA,NA,NA,NA,NA,"control_double",10,"2vs1","Y",1696
"150219-02-sc",NA,NA,NA,NA,NA,"control_double",11,"3vs1","Y",735
"150219-02-sc",NA,NA,NA,NA,NA,"control_single",12,"1vs1","Y",1003
"150219-02-sc",NA,NA,NA,NA,NA,"control_single",13,"2vs2","Y",1354
"150219-02-sc",NA,NA,NA,NA,NA,"inference",14,"2vs1","Y",1405
"150219-02-sc",NA,NA,NA,NA,NA,"control_single",15,"1vs1","Y",1724
"150219-02-sc",NA,NA,NA,NA,NA,"control_double",16,"2vs1","Y",839
"150219-02-sc",NA,NA,NA,NA,NA,"inference",17,"2vs1","Y",2188
"150219-02-sc",NA,NA,NA,NA,NA,"control_single",18,"2vs2","Y",1943
"150219-03-sc",NA,NA,NA,NA,NA,"practice",1,NA,"Y",1380
"150219-03-sc",NA,NA,NA,NA,NA,"practice",2,NA,"N",1159
"150219-03-sc",NA,NA,NA,NA,NA,"control_single",3,"2vs2","Y",1937
"150219-03-sc",NA,NA,NA,NA,NA,"inference",4,"3vs1","Y",2662
"150219-03-sc",NA,NA,NA,NA,NA,"control_double",5,"3vs1","Y",8755
"150219-03-sc",NA,NA,NA,NA,NA,"control_single",6,"1vs1","Y",1285
"150219-03-sc",NA,NA,NA,NA,NA,"inference",7,"3vs1","N",9823
"150219-03-sc",NA,NA,NA,NA,NA,"control_single",8,"1vs1","Y",6209
"150219-03-sc",NA,NA,NA,NA,NA,"control_single",9,"2vs2","Y",1785
"150219-03-sc",NA,NA,NA,NA,NA,"control_double",10,"2vs1","Y",2000
"150219-03-sc",NA,NA,NA,NA,NA,"control_double",11,"3vs1","Y",2614
"150219-03-sc",NA,NA,NA,NA,NA,"control_single",12,"1vs1","Y",1985
"150219-03-sc",NA,NA,NA,NA,NA,"control_single",13,"2vs2","Y",3613
"150219-03-sc",NA,NA,NA,NA,NA,"inference",14,"2vs1","Y",3202
"150219-03-sc",NA,NA,NA,NA,NA,"control_single",15,"1vs1","Y",1098
"150219-03-sc",NA,NA,NA,NA,NA,"control_double",16,"2vs1","Y",2858
"150219-03-sc",NA,NA,NA,NA,NA,"inference",17,"2vs1","Y",1229
"150219-03-sc",NA,NA,NA,NA,NA,"control_single",18,"2vs2","Y",2744
"150219-04-sc",NA,NA,NA,NA,NA,"practice",1,NA,"Y",8442
"150219-04-sc",NA,NA,NA,NA,NA,"practice",2,NA,"Y",3786
"150219-04-sc",NA,NA,NA,NA,NA,"control_single",3,"2vs2","Y",2880
"150219-04-sc",NA,NA,NA,NA,NA,"inference",4,"2vs1","Y",2594
"150219-04-sc",NA,NA,NA,NA,NA,"control_double",5,"3vs1","Y",2579
"150219-04-sc",NA,NA,NA,NA,NA,"control_single",6,"2vs2","Y",2373
"150219-04-sc",NA,NA,NA,NA,NA,"inference",7,"2vs1","Y",2499
"150219-04-sc",NA,NA,NA,NA,NA,"control_single",8,"2vs2","Y",2125
"150219-04-sc",NA,NA,NA,NA,NA,"control_single",9,"2vs2","Y",1741
"150219-04-sc",NA,NA,NA,NA,NA,"control_double",10,"2vs1","Y",2109
"150219-04-sc",NA,NA,NA,NA,NA,"control_double",11,"3vs1","Y",1429
"150219-04-sc",NA,NA,NA,NA,NA,"control_single",12,"1vs1","Y",1389
"150219-04-sc",NA,NA,NA,NA,NA,"control_single",13,"1vs1","Y",2698
"150219-04-sc",NA,NA,NA,NA,NA,"inference",14,"3vs1","N",4329
"150219-04-sc",NA,NA,NA,NA,NA,"control_single",15,"1vs1","Y",1572
"150219-04-sc",NA,NA,NA,NA,NA,"control_double",16,"2vs1","Y",1429
"150219-04-sc",NA,NA,NA,NA,NA,"inference",17,"3vs1","N",5367
"150219-04-sc",NA,NA,NA,NA,NA,"control_single",18,"1vs1","Y",1292
"150219-05-sc",NA,NA,NA,NA,NA,"practice",1,NA,"Y",6958
"150219-05-sc",NA,NA,NA,NA,NA,"practice",2,NA,"Y",1314
"150219-05-sc",NA,NA,NA,NA,NA,"control_single",3,"2vs2","Y",1814
"150219-05-sc",NA,NA,NA,NA,NA,"inference",4,"3vs1","Y",5092
"150219-05-sc",NA,NA,NA,NA,NA,"control_double",5,"3vs1","Y",2268
"150219-05-sc",NA,NA,NA,NA,NA,"control_single",6,"1vs1","Y",1786
"150219-05-sc",NA,NA,NA,NA,NA,"inference",7,"3vs1","N",4107
"150219-05-sc",NA,NA,NA,NA,NA,"control_single",8,"1vs1","Y",1851
"150219-05-sc",NA,NA,NA,NA,NA,"control_single",9,"2vs2","Y",1745
"150219-05-sc",NA,NA,NA,NA,NA,"control_double",10,"2vs1","Y",2833
"150219-05-sc",NA,NA,NA,NA,NA,"practice",1,NA,"Y",2995
"150219-05-sc",NA,NA,NA,NA,NA,"practice",2,NA,"Y",1355
"150219-05-sc",NA,NA,NA,NA,NA,"control_single",3,"2vs2","Y",1705
"150219-05-sc",NA,NA,NA,NA,NA,"inference",4,"2vs1","Y",2803
"150219-05-sc",NA,NA,NA,NA,NA,"control_double",5,"3vs1","Y",1597
"150219-05-sc",NA,NA,NA,NA,NA,"control_single",6,"2vs2","Y",1879
"150219-05-sc",NA,NA,NA,NA,NA,"inference",7,"2vs1","N",2619
"150219-05-sc",NA,NA,NA,NA,NA,"control_single",8,"2vs2","Y",1687
"150219-05-sc",NA,NA,NA,NA,NA,"control_single",9,"2vs2","Y",1775
"150219-05-sc",NA,NA,NA,NA,NA,"control_double",10,"2vs1","Y",1898
"150219-05-sc",NA,NA,NA,NA,NA,"control_double",11,"3vs1","Y",2585
"150219-05-sc",NA,NA,NA,NA,NA,"control_single",12,"1vs1","Y",1352
"150219-05-sc",NA,NA,NA,NA,NA,"control_single",13,"1vs1","Y",2442
"150219-05-sc",NA,NA,NA,NA,NA,"inference",14,"3vs1","Y",2596
"150219-05-sc",NA,NA,NA,NA,NA,"control_single",15,"1vs1","Y",2308
"150219-05-sc",NA,NA,NA,NA,NA,"control_double",16,"2vs1","Y",2503
"150219-05-sc",NA,NA,NA,NA,NA,"inference",17,"3vs1","Y",1949
"150219-05-sc",NA,NA,NA,NA,NA,"control_single",18,"1vs1","Y",1162
"150219-06-sc",NA,NA,NA,NA,NA,"practice",1,NA,"Y",2780
"150219-06-sc",NA,NA,NA,NA,NA,"practice",2,NA,"Y",1707
"150219-06-sc",NA,NA,NA,NA,NA,"control_single",3,"2vs2","Y",2174
"150219-06-sc",NA,NA,NA,NA,NA,"inference",4,"3vs1","Y",2552
"150219-06-sc",NA,NA,NA,NA,NA,"control_double",5,"3vs1","Y",4111
"150219-06-sc",NA,NA,NA,NA,NA,"control_single",6,"1vs1","Y",1894
"150219-06-sc",NA,NA,NA,NA,NA,"inference",7,"3vs1","Y",6432
"150219-06-sc",NA,NA,NA,NA,NA,"control_single",8,"1vs1","N",2380
"150219-06-sc",NA,NA,NA,NA,NA,"control_single",9,"2vs2","Y",2015
"150219-06-sc",NA,NA,NA,NA,NA,"control_double",10,"2vs1","Y",1978
"150219-06-sc",NA,NA,NA,NA,NA,"control_double",11,"3vs1","Y",1780
"150219-06-sc",NA,NA,NA,NA,NA,"control_single",12,"1vs1","Y",2003
"150219-06-sc",NA,NA,NA,NA,NA,"control_single",13,"2vs2","Y",1575
"150219-06-sc",NA,NA,NA,NA,NA,"inference",14,"2vs1","Y",2648
"150219-06-sc",NA,NA,NA,NA,NA,"control_single",15,"1vs1","Y",1720
"150219-06-sc",NA,NA,NA,NA,NA,"control_double",16,"2vs1","Y",1367
"150219-06-sc",NA,NA,NA,NA,NA,"inference",17,"2vs1","N",3279
"150219-06-sc",NA,NA,NA,NA,NA,"control_single",18,"2vs2","Y",1403
"404111",NA,NA,NA,NA,NA,"practice",1,NA,"Y",2061
"404111",NA,NA,NA,NA,NA,"practice",2,NA,"Y",1339
"404111",NA,NA,NA,NA,NA,"control_single",3,"2vs2","Y",2013
"404111",NA,NA,NA,NA,NA,"inference",4,"3vs1","Y",5160
"404111",NA,NA,NA,NA,NA,"control_double",5,"3vs1","Y",2249
"404111",NA,NA,NA,NA,NA,"control_single",6,"1vs1","Y",1257
"404111",NA,NA,NA,NA,NA,"inference",7,"3vs1","Y",2253
"404111",NA,NA,NA,NA,NA,"control_single",8,"1vs1","Y",1695
"404111",NA,NA,NA,NA,NA,"control_single",9,"2vs2","Y",1803
"404111",NA,NA,NA,NA,NA,"control_double",10,"2vs1","Y",2288
"404111",NA,NA,NA,NA,NA,"control_double",11,"3vs1","Y",2179
"404111",NA,NA,NA,NA,NA,"control_single",12,"1vs1","Y",2294
"404111",NA,NA,NA,NA,NA,"control_single",13,"2vs2","Y",1660
"404111",NA,NA,NA,NA,NA,"inference",14,"2vs1","Y",2103
"404111",NA,NA,NA,NA,NA,"control_single",15,"1vs1","Y",1416
"404111",NA,NA,NA,NA,NA,"control_double",16,"2vs1","Y",1595
"404111",NA,NA,NA,NA,NA,"inference",17,"2vs1","Y",4808
"404111",NA,NA,NA,NA,NA,"control_single",18,"2vs2","Y",2394
"404112",NA,NA,NA,NA,NA,"practice",1,NA,"Y",5239
"404112",NA,NA,NA,NA,NA,"practice",2,NA,"Y",1572
"404112",NA,NA,NA,NA,NA,"control_single",3,"2vs2","Y",3022
"404112",NA,NA,NA,NA,NA,"inference",4,"3vs1","Y",2239
"404112",NA,NA,NA,NA,NA,"control_double",5,"3vs1","Y",3325
"404112",NA,NA,NA,NA,NA,"control_single",6,"1vs1","Y",1760
"404112",NA,NA,NA,NA,NA,"inference",7,"3vs1","Y",2298
"404112",NA,NA,NA,NA,NA,"control_single",8,"1vs1","Y",3262
"404112",NA,NA,NA,NA,NA,"control_single",9,"2vs2","Y",1854
"404112",NA,NA,NA,NA,NA,"control_double",10,"2vs1","Y",2646
"404112",NA,NA,NA,NA,NA,"control_double",11,"3vs1","Y",1797
"404112",NA,NA,NA,NA,NA,"control_single",12,"1vs1","Y",3882
"404112",NA,NA,NA,NA,NA,"control_single",13,"2vs2","Y",1868
"404112",NA,NA,NA,NA,NA,"inference",14,"2vs1","Y",2522
"404112",NA,NA,NA,NA,NA,"control_single",15,"1vs1","Y",2185
"404112",NA,NA,NA,NA,NA,"control_double",16,"2vs1","Y",2546
"404112",NA,NA,NA,NA,NA,"inference",17,"2vs1","Y",1994
"404112",NA,NA,NA,NA,NA,"control_single",18,"2vs2","Y",3178
"Gs0529091",NA,NA,NA,NA,NA,"practice",1,NA,"Y",3302
"Gs0529091",NA,NA,NA,NA,NA,"practice",2,NA,"Y",1948
"Gs0529091",NA,NA,NA,NA,NA,"control_single",3,"2vs2","Y",3027
"Gs0529091",NA,NA,NA,NA,NA,"inference",4,"3vs1","Y",1532
"Gs0529091",NA,NA,NA,NA,NA,"control_double",5,"3vs1","Y",2612
"Gs0529091",NA,NA,NA,NA,NA,"control_single",6,"1vs1","Y",2164
"Gs0529091",NA,NA,NA,NA,NA,"inference",7,"3vs1","Y",2062
"Gs0529091",NA,NA,NA,NA,NA,"control_single",8,"1vs1","Y",2730
"Gs0529091",NA,NA,NA,NA,NA,"control_single",9,"2vs2","Y",3241
"Gs0529091",NA,NA,NA,NA,NA,"control_double",10,"2vs1","Y",6119
"Gs0529091",NA,NA,NA,NA,NA,"control_double",11,"3vs1","Y",1316
"Gs0529091",NA,NA,NA,NA,NA,"control_single",12,"1vs1","Y",3068
"Gs0529091",NA,NA,NA,NA,NA,"control_single",13,"2vs2","Y",3720
"Gs0529091",NA,NA,NA,NA,NA,"inference",14,"2vs1","Y",2469
"Gs0529091",NA,NA,NA,NA,NA,"control_single",15,"1vs1","N",3197
"Gs0529091",NA,NA,NA,NA,NA,"control_double",16,"2vs1","Y",2077
"Gs0529091",NA,NA,NA,NA,NA,"inference",17,"2vs1","Y",1400
"Gs0529091",NA,NA,NA,NA,NA,"control_single",18,"2vs2","Y",2268
"150420-01-sc",NA,NA,NA,NA,NA,"practice",1,NA,"Y",2964
"150420-01-sc",NA,NA,NA,NA,NA,"practice",2,NA,"Y",1860
"150420-01-sc",NA,NA,NA,NA,NA,"control_single",3,"2vs2","Y",2607
"150420-01-sc",NA,NA,NA,NA,NA,"inference",4,"3vs1","Y",1927
"150420-01-sc",NA,NA,NA,NA,NA,"control_double",5,"3vs1","Y",88189
"150420-01-sc",NA,NA,NA,NA,NA,"control_single",6,"1vs1","Y",1683
"150420-01-sc",NA,NA,NA,NA,NA,"inference",7,"3vs1","Y",1244
"150420-01-sc",NA,NA,NA,NA,NA,"control_single",8,"1vs1","Y",3627
"150420-01-sc",NA,NA,NA,NA,NA,"control_single",9,"2vs2","N",4618
"150420-01-sc",NA,NA,NA,NA,NA,"control_double",10,"2vs1","N",2878
"150420-01-sc",NA,NA,NA,NA,NA,"control_double",11,"3vs1","N",5660
"150420-01-sc",NA,NA,NA,NA,NA,"control_single",12,"1vs1","Y",2046
"150420-01-sc",NA,NA,NA,NA,NA,"control_single",13,"2vs2","N",709
"150420-01-sc",NA,NA,NA,NA,NA,"inference",14,"2vs1","Y",3921
"150420-01-sc",NA,NA,NA,NA,NA,"control_single",15,"1vs1","N",3395
"150420-01-sc",NA,NA,NA,NA,NA,"control_double",16,"2vs1","Y",2955
"150420-01-sc",NA,NA,NA,NA,NA,"inference",17,"2vs1","Y",1624
"150420-01-sc",NA,NA,NA,NA,NA,"control_single",18,"2vs2","N",2408
"150420-02-sc",3,3.88,"M",4,"bing","practice",1,NA,"N",1476
"150420-02-sc",3,3.88,"M",4,"bing","practice",2,NA,"N",1027
"150420-02-sc",3,3.88,"M",4,"bing","control_single",3,"2vs2","Y",4331
"150420-02-sc",3,3.88,"M",4,"bing","inference",4,"3vs1","N",1638
"150420-02-sc",3,3.88,"M",4,"bing","control_double",5,"3vs1","Y",5366
"150420-02-sc",3,3.88,"M",4,"bing","control_single",6,"1vs1","Y",1752
"150420-02-sc",3,3.88,"M",4,"bing","inference",7,"3vs1","Y",5381
"150420-02-sc",3,3.88,"M",4,"bing","control_single",8,"1vs1","Y",3604
"150420-02-sc",3,3.88,"M",4,"bing","control_single",9,"2vs2","Y",2553
"150420-02-sc",3,3.88,"M",4,"bing","control_double",10,"2vs1","Y",2258
"150420-02-sc",3,3.88,"M",4,"bing","control_double",11,"3vs1","Y",1859
"150420-02-sc",3,3.88,"M",4,"bing","control_single",12,"1vs1","Y",2008
"150420-02-sc",3,3.88,"M",4,"bing","control_single",13,"2vs2","Y",2230
"150420-02-sc",3,3.88,"M",4,"bing","inference",14,"2vs1","Y",7521
"150420-02-sc",3,3.88,"M",4,"bing","control_single",15,"1vs1","Y",1711
"150420-02-sc",3,3.88,"M",4,"bing","control_double",16,"2vs1","Y",1984
"150420-02-sc",3,3.88,"M",4,"bing","inference",17,"2vs1","Y",2423
"150420-02-sc",3,3.88,"M",4,"bing","control_single",18,"2vs2","Y",2825
"150420-03-sc",5,5.35,"F",6,"bing","practice",1,NA,"Y",2244
"150420-03-sc",5,5.35,"F",6,"bing","practice",2,NA,"Y",1359
"150420-03-sc",5,5.35,"F",6,"bing","control_single",3,"2vs2","Y",1519
"150420-03-sc",5,5.35,"F",6,"bing","inference",4,"3vs1","Y",2663
"150420-03-sc",5,5.35,"F",6,"bing","control_double",5,"3vs1","N",2458
"150420-03-sc",5,5.35,"F",6,"bing","control_single",6,"1vs1","Y",1069
"150420-03-sc",5,5.35,"F",6,"bing","inference",7,"3vs1","Y",1211
"150420-03-sc",5,5.35,"F",6,"bing","control_single",8,"1vs1","Y",1909
"150420-03-sc",5,5.35,"F",6,"bing","control_single",9,"2vs2","Y",1790
"150420-03-sc",5,5.35,"F",6,"bing","control_double",10,"2vs1","Y",2256
"150420-03-sc",5,5.35,"F",6,"bing","control_double",11,"3vs1","Y",1504
"150420-03-sc",5,5.35,"F",6,"bing","control_single",12,"1vs1","Y",1456
"150420-03-sc",5,5.35,"F",6,"bing","control_single",13,"2vs2","Y",1535
"150420-03-sc",5,5.35,"F",6,"bing","inference",14,"2vs1","Y",1274
"150420-03-sc",5,5.35,"F",6,"bing","control_single",15,"1vs1","Y",1327
"150420-03-sc",5,5.35,"F",6,"bing","control_double",16,"2vs1","Y",1469
"150420-03-sc",5,5.35,"F",6,"bing","inference",17,"2vs1","Y",1837
"150420-03-sc",5,5.35,"F",6,"bing","control_single",18,"2vs2","Y",1860
"150420-04-sc",5,5.36,"M",6,"bing","practice",1,NA,"Y",5507
"150420-04-sc",5,5.36,"M",6,"bing","practice",2,NA,"Y",1598
"150420-04-sc",5,5.36,"M",6,"bing","control_single",3,"2vs2","N",2200
"150420-04-sc",5,5.36,"M",6,"bing","inference",4,"3vs1","Y",2422
"150420-04-sc",5,5.36,"M",6,"bing","control_double",5,"3vs1","Y",2608
"150420-04-sc",5,5.36,"M",6,"bing","control_single",6,"1vs1","Y",1758
"150420-04-sc",5,5.36,"M",6,"bing","inference",7,"3vs1","Y",2367
"150420-04-sc",5,5.36,"M",6,"bing","control_single",8,"1vs1","Y",2892
"150420-04-sc",5,5.36,"M",6,"bing","control_single",9,"2vs2","Y",2397
"150420-04-sc",5,5.36,"M",6,"bing","control_double",10,"2vs1","Y",1629
"150420-04-sc",5,5.36,"M",6,"bing","control_double",11,"3vs1","Y",1629
"150420-04-sc",5,5.36,"M",6,"bing","control_single",12,"1vs1","Y",1203
"150420-04-sc",5,5.36,"M",6,"bing","control_single",13,"2vs2","Y",2362
"150420-04-sc",5,5.36,"M",6,"bing","inference",14,"2vs1","Y",4646
"150420-04-sc",5,5.36,"M",6,"bing","control_single",15,"1vs1","Y",14857
"150420-04-sc",5,5.36,"M",6,"bing","control_double",16,"2vs1","Y",1852
"150420-04-sc",5,5.36,"M",6,"bing","inference",17,"2vs1","Y",4773
"150420-04-sc",5,5.36,"M",6,"bing","control_single",18,"2vs2","Y",2133
"150420-05-sc",4,4.14,"M",4,"bing","practice",1,NA,"Y",1864
"150420-05-sc",4,4.14,"M",4,"bing","practice",2,NA,"Y",1511
"150420-05-sc",4,4.14,"M",4,"bing","control_single",3,"2vs2","Y",3319
"150420-05-sc",4,4.14,"M",4,"bing","inference",4,"3vs1","Y",2093
"150420-05-sc",4,4.14,"M",4,"bing","control_double",5,"3vs1","Y",2318
"150420-05-sc",4,4.14,"M",4,"bing","control_single",6,"1vs1","Y",1141
"150420-05-sc",4,4.14,"M",4,"bing","inference",7,"3vs1","Y",9206
"150420-05-sc",4,4.14,"M",4,"bing","control_single",8,"1vs1","Y",2025
"150420-05-sc",4,4.14,"M",4,"bing","control_single",9,"2vs2","Y",2322
"150420-05-sc",4,4.14,"M",4,"bing","control_double",10,"2vs1","Y",1408
"150420-05-sc",4,4.14,"M",4,"bing","control_double",11,"3vs1","N",701
"150420-05-sc",4,4.14,"M",4,"bing","control_single",12,"1vs1","Y",953
"150420-05-sc",4,4.14,"M",4,"bing","control_single",13,"2vs2","Y",1662
"150420-05-sc",4,4.14,"M",4,"bing","inference",14,"2vs1","Y",3105
"150420-05-sc",4,4.14,"M",4,"bing","control_single",15,"1vs1","Y",2565
"150420-05-sc",4,4.14,"M",4,"bing","control_double",16,"2vs1","Y",1423
"150420-05-sc",4,4.14,"M",4,"bing","inference",17,"2vs1","Y",1702
"150420-05-sc",4,4.14,"M",4,"bing","control_single",18,"2vs2","Y",1353
"150420-06-sc",4,4.66,"M",6,"bing","practice",1,NA,"Y",9538
"150420-06-sc",4,4.66,"M",6,"bing","practice",2,NA,"Y",2646
"150420-06-sc",4,4.66,"M",6,"bing","control_single",3,"2vs2","Y",3091
"150420-06-sc",4,4.66,"M",6,"bing","inference",4,"3vs1","Y",5006
"150420-06-sc",4,4.66,"M",6,"bing","control_double",5,"3vs1","Y",3126
"150420-06-sc",4,4.66,"M",6,"bing","control_single",6,"1vs1","Y",2161
"150420-06-sc",4,4.66,"M",6,"bing","inference",7,"3vs1","Y",3898
"150420-06-sc",4,4.66,"M",6,"bing","control_single",8,"1vs1","Y",4297
"150420-06-sc",4,4.66,"M",6,"bing","control_single",9,"2vs2","Y",2553
"150420-06-sc",4,4.66,"M",6,"bing","control_double",10,"2vs1","Y",2243
"150420-06-sc",4,4.66,"M",6,"bing","control_double",11,"3vs1","Y",2388
"150420-06-sc",4,4.66,"M",6,"bing","control_single",12,"1vs1","Y",2524
"150420-06-sc",4,4.66,"M",6,"bing","control_single",13,"2vs2","Y",2229
"150420-06-sc",4,4.66,"M",6,"bing","inference",14,"2vs1","Y",2837
"150420-06-sc",4,4.66,"M",6,"bing","control_single",15,"1vs1","Y",4224
"150420-06-sc",4,4.66,"M",6,"bing","control_double",16,"2vs1","Y",2381
"150420-06-sc",4,4.66,"M",6,"bing","inference",17,"2vs1","Y",3338
"150420-06-sc",4,4.66,"M",6,"bing","control_single",18,"2vs2","Y",3028
"150424-01-sc",5,5.18,"F",6,"bing","practice",1,NA,"Y",1771
"150424-01-sc",5,5.18,"F",6,"bing","practice",2,NA,"Y",1371
"150424-01-sc",5,5.18,"F",6,"bing","control_single",3,"2vs2","Y",1668
"150424-01-sc",5,5.18,"F",6,"bing","inference",4,"3vs1","N",3427
"150424-01-sc",5,5.18,"F",6,"bing","control_double",5,"3vs1","Y",2436
"150424-01-sc",5,5.18,"F",6,"bing","control_single",6,"1vs1","Y",1603
"150424-01-sc",5,5.18,"F",6,"bing","inference",7,"3vs1","Y",2356
"150424-01-sc",5,5.18,"F",6,"bing","control_single",8,"1vs1","Y",1609
"150424-01-sc",5,5.18,"F",6,"bing","control_single",9,"2vs2","Y",2165
"150424-01-sc",5,5.18,"F",6,"bing","control_double",10,"2vs1","Y",2890
"150424-01-sc",5,5.18,"F",6,"bing","control_double",11,"3vs1","Y",1483
"150424-01-sc",5,5.18,"F",6,"bing","control_single",12,"1vs1","Y",1682
"150424-01-sc",5,5.18,"F",6,"bing","control_single",13,"2vs2","Y",2023
"150424-01-sc",5,5.18,"F",6,"bing","inference",14,"2vs1","Y",1597
"150424-01-sc",5,5.18,"F",6,"bing","control_single",15,"1vs1","Y",1395
"150424-01-sc",5,5.18,"F",6,"bing","control_double",16,"2vs1","Y",1536
"150424-01-sc",5,5.18,"F",6,"bing","inference",17,"2vs1","Y",1265
"150424-01-sc",5,5.18,"F",6,"bing","control_single",18,"2vs2","Y",1990
"150424-02-sc",5,5.05,"F",6,"bing","practice",1,NA,"Y",1729
"150424-02-sc",5,5.05,"F",6,"bing","practice",2,NA,"Y",1534
"150424-02-sc",5,5.05,"F",6,"bing","control_single",3,"2vs2","Y",1771
"150424-02-sc",5,5.05,"F",6,"bing","inference",4,"3vs1","Y",2090
"150424-02-sc",5,5.05,"F",6,"bing","control_double",5,"3vs1","Y",1997
"150424-02-sc",5,5.05,"F",6,"bing","control_single",6,"1vs1","Y",1311
"150424-02-sc",5,5.05,"F",6,"bing","inference",7,"3vs1","Y",3288
"150424-02-sc",5,5.05,"F",6,"bing","control_single",8,"1vs1","Y",2141
"150424-02-sc",5,5.05,"F",6,"bing","control_single",9,"2vs2","Y",2708
"150424-02-sc",5,5.05,"F",6,"bing","control_double",10,"2vs1","Y",2190
"150424-02-sc",5,5.05,"F",6,"bing","control_double",11,"3vs1","Y",2716
"150424-02-sc",5,5.05,"F",6,"bing","control_single",12,"1vs1","Y",1709
"150424-02-sc",5,5.05,"F",6,"bing","control_single",13,"2vs2","Y",1527
"150424-02-sc",5,5.05,"F",6,"bing","inference",14,"2vs1","Y",2196
"150424-02-sc",5,5.05,"F",6,"bing","control_single",15,"1vs1","Y",1174
"150424-02-sc",5,5.05,"F",6,"bing","control_double",16,"2vs1","Y",1289
"150424-02-sc",5,5.05,"F",6,"bing","inference",17,"2vs1","Y",4438
"150424-02-sc",5,5.05,"F",6,"bing","control_single",18,"2vs2","Y",1967
"150424-03-sc",4,4.68,"M",6,"bing","practice",1,NA,"Y",21172
"150424-03-sc",4,4.68,"M",6,"bing","practice",2,NA,"Y",16050
"150424-03-sc",4,4.68,"M",6,"bing","control_single",3,"2vs2","Y",3542
"150424-03-sc",4,4.68,"M",6,"bing","inference",4,"3vs1","Y",8809
"150424-03-sc",4,4.68,"M",6,"bing","control_double",5,"3vs1","Y",4462
"150424-03-sc",4,4.68,"M",6,"bing","control_single",6,"1vs1","Y",8931
"150424-03-sc",4,4.68,"M",6,"bing","inference",7,"3vs1","Y",4004
"150424-03-sc",4,4.68,"M",6,"bing","control_single",8,"1vs1","Y",1714
"150424-03-sc",4,4.68,"M",6,"bing","control_single",9,"2vs2","Y",2613
"150424-03-sc",4,4.68,"M",6,"bing","control_double",10,"2vs1","Y",2184
"150424-03-sc",4,4.68,"M",6,"bing","control_double",11,"3vs1","Y",1799
"150424-03-sc",4,4.68,"M",6,"bing","control_single",12,"1vs1","Y",1710
"150424-03-sc",4,4.68,"M",6,"bing","control_single",13,"2vs2","Y",3319
"150424-03-sc",4,4.68,"M",6,"bing","inference",14,"2vs1","Y",9152
"150424-03-sc",4,4.68,"M",6,"bing","control_single",15,"1vs1","Y",1848
"150424-03-sc",4,4.68,"M",6,"bing","control_double",16,"2vs1","Y",2427
"150424-03-sc",4,4.68,"M",6,"bing","inference",17,"2vs1","N",15586
"150424-03-sc",4,4.68,"M",6,"bing","control_single",18,"2vs2","Y",13404
"150513-01-sc",2,2.76,"F",6,"bing","practice",1,NA,"Y",2956
"150513-01-sc",2,2.76,"F",6,"bing","practice",2,NA,"Y",1469
"150513-01-sc",2,2.76,"F",6,"bing","control_single",3,"2vs2","Y",1806
"150513-02-sc",3,3.29,"F",6,"bing","practice",1,NA,"Y",2357
"150513-02-sc",3,3.29,"F",6,"bing","practice",2,NA,"Y",1960
"150513-02-sc",3,3.29,"F",6,"bing","control_single",3,"2vs2","Y",2256
"150513-02-sc",3,3.29,"F",6,"bing","inference",4,"3vs1","Y",4062
"150513-02-sc",3,3.29,"F",6,"bing","control_double",5,"3vs1","Y",26645
"150513-02-sc",3,3.29,"F",6,"bing","control_single",6,"1vs1","Y",1798
"150518-01-sc",2,2.79,"M",6,"bing","practice",1,NA,"Y",12010
"150518-01-sc",2,2.79,"M",6,"bing","practice",2,NA,"Y",28122
"150518-01-sc",2,2.79,"M",6,"bing","control_single",3,"2vs2","Y",3085
"150518-01-sc",2,2.79,"M",6,"bing","inference",4,"3vs1","N",1566
"150518-01-sc",2,2.79,"M",6,"bing","control_double",5,"3vs1","Y",8932
"150518-01-sc",2,2.79,"M",6,"bing","control_single",6,"1vs1","N",5387
"150518-01-sc",2,2.79,"M",6,"bing","inference",7,"3vs1","Y",5064
"150518-01-sc",2,2.79,"M",6,"bing","control_single",8,"1vs1","Y",3884
"150518-01-sc",2,2.79,"M",6,"bing","control_single",9,"2vs2","N",2928
"150518-01-sc",2,2.79,"M",6,"bing","control_double",10,"2vs1","N",6709
"150518-01-sc",2,2.79,"M",6,"bing","control_double",11,"3vs1","N",3419
"150518-01-sc",2,2.79,"M",6,"bing","control_single",12,"1vs1","N",3813
"150518-01-sc",2,2.79,"M",6,"bing","control_single",13,"2vs2","Y",4762
"150518-01-sc",2,2.79,"M",6,"bing","inference",14,"2vs1","Y",11541
"150518-01-sc",2,2.79,"M",6,"bing","control_single",15,"1vs1","N",12075
"150518-01-sc",2,2.79,"M",6,"bing","control_double",16,"2vs1","Y",6329
"150518-01-sc",2,2.79,"M",6,"bing","inference",17,"2vs1","Y",24780
"150518-01-sc",2,2.79,"M",6,"bing","control_single",18,"2vs2","N",30747
"150520-01-sc",3,3.27,"F",6,"bing","practice",1,NA,"Y",6720
"150520-01-sc",3,3.27,"F",6,"bing","practice",2,NA,"Y",1816
"150520-01-sc",3,3.27,"F",6,"bing","control_single",3,"2vs2","Y",2318
"150520-01-sc",3,3.27,"F",6,"bing","inference",4,"3vs1","Y",1821
"150520-01-sc",3,3.27,"F",6,"bing","control_double",5,"3vs1","Y",2320
"150520-01-sc",3,3.27,"F",6,"bing","control_single",6,"1vs1","Y",1919
"150520-01-sc",3,3.27,"F",6,"bing","inference",7,"3vs1","Y",4447
"150520-01-sc",3,3.27,"F",6,"bing","control_single",8,"1vs1","Y",2740
"150520-01-sc",3,3.27,"F",6,"bing","control_single",9,"2vs2","Y",1993
"150520-01-sc",3,3.27,"F",6,"bing","control_double",10,"2vs1","Y",2602
"150520-01-sc",3,3.27,"F",6,"bing","control_double",11,"3vs1","N",10670
"150520-01-sc",3,3.27,"F",6,"bing","control_single",12,"1vs1","Y",2020
"150520-01-sc",3,3.27,"F",6,"bing","control_single",13,"2vs2","Y",1488
"150520-01-sc",3,3.27,"F",6,"bing","inference",14,"2vs1","Y",4606
"150520-01-sc",3,3.27,"F",6,"bing","control_single",15,"1vs1","Y",5888
"150520-02-sc",3,3.35,"M",6,"bing","practice",1,NA,"N",16206
"150520-02-sc",3,3.35,"M",6,"bing","practice",2,NA,"Y",3816
"150520-02-sc",3,3.35,"M",6,"bing","control_single",3,"2vs2","Y",6616
"150520-02-sc",3,3.35,"M",6,"bing","inference",4,"3vs1","Y",3608
"150520-02-sc",3,3.35,"M",6,"bing","control_double",5,"3vs1","Y",3880
"150520-02-sc",3,3.35,"M",6,"bing","control_single",6,"1vs1","N",2348
"150520-02-sc",3,3.35,"M",6,"bing","inference",7,"3vs1","N",4029
"150520-02-sc",3,3.35,"M",6,"bing","control_single",8,"1vs1","Y",4628
"150520-02-sc",3,3.35,"M",6,"bing","control_single",9,"2vs2","N",2775
"150520-02-sc",3,3.35,"M",6,"bing","control_double",10,"2vs1","N",2141
