subid,list,trial_num,word,pic1,pic2,trial_type,pic1type,pic2type,side_clicked,pic_clicked,correct,datetesting,time,rt
180124_test1,1,1,practice1_cow,practice1_cow,practice1_lion,practice,target,distractor,L,practice1_cow,Y,1/24/18,14:07,1779
180124_test1,1,2,practice2_monkey,practice2_rabbit,practice2_monkey,practice,distractor,target,R,practice2_monkey,Y,1/24/18,14:07,2021
180124_test1,1,3,elmo_teddybear,elmo_flower,elmo_teddybear,control_single,distractor,target,R,elmo_teddybear,Y,1/24/18,14:07,2424
180124_test1,1,4,elmo_apple,elmo_apple,elmo_orange,inference,target,distractor,R,elmo_orange,N,1/24/18,14:07,1881
180124_test1,1,5,grover_dog,grover_cat,grover_dog,control_double,distractor,target,R,grover_dog,Y,1/24/18,14:07,1699
180124_test1,1,6,elmo_banana,elmo_banana,elmo_carrot,control_single,target,distractor,L,elmo_banana,Y,1/24/18,14:07,1427
180124_test1,1,7,grover_car,grover_car,grover_bicycle,inference,target,distractor,L,grover_car,Y,1/24/18,14:07,1606
180124_test1,1,8,ernie_orange,ernie_apple,ernie_orange,control_single,distractor,target,R,ernie_orange,Y,1/24/18,14:07,1376
180124_test1,1,9,bert_cat,bert_cat,bert_dog,control_single,target,distractor,L,bert_cat,Y,1/24/18,14:07,1557
180124_test1,1,10,bert_ball,bert_ball,bert_truck,control_double,target,distractor,L,bert_ball,Y,1/24/18,14:07,2022
180124_test1,1,11,bert_flower,bert_flower,bert_teddybear,control_double,target,distractor,L,bert_flower,Y,1/24/18,14:07,1345
180124_test1,1,12,elmo_truck,elmo_ball,elmo_truck,control_single,distractor,target,R,elmo_truck,Y,1/24/18,14:07,1367
180124_test1,1,13,bert_bicycle,bert_car,bert_bicycle,control_single,distractor,target,R,bert_bicycle,Y,1/24/18,14:07,1771
180124_test1,1,14,bert_carrot,bert_banana,bert_carrot,inference,distractor,target,R,bert_carrot,Y,1/24/18,14:07,1275
180124_test1,1,15,ernie_car,ernie_car,ernie_bicycle,control_single,target,distractor,L,ernie_car,Y,1/24/18,14:07,1357
180124_test1,1,16,grover_orange,grover_apple,grover_orange,control_double,distractor,target,R,grover_orange,Y,1/24/18,14:07,1113
180124_test1,1,17,ernie_teddybear,ernie_flower,ernie_teddybear,inference,distractor,target,R,ernie_teddybear,Y,1/24/18,14:07,1686
180124_test1,1,18,grover_ball,grover_ball,grover_truck,control_single,target,distractor,L,grover_ball,Y,1/24/18,14:07,1208
180124_test2,2,1,practice1_lion,practice1_cow,practice1_lion,practice,distractor,target,R,practice1_lion,Y,1/24/18,14:22,1405
180124_test2,2,2,practice2_rabbit,practice2_rabbit,practice2_monkey,practice,target,distractor,L,practice2_rabbit,Y,1/24/18,14:22,1056
180124_test2,2,3,grover_orange2,grover_apple2,grover_orange2,control_single,distractor,target,R,grover_orange2,Y,1/24/18,14:22,1288
180124_test2,2,4,bert_dog2,bert_cat2,bert_dog2,inference,distractor,target,R,bert_dog2,Y,1/24/18,14:22,1423
180124_test2,2,5,bert_car2,bert_car2,bert_bicycle2,control_double,target,distractor,L,bert_car2,Y,1/24/18,14:22,1260
180124_test2,2,6,bert_teddybear2,bert_flower2,bert_teddybear2,control_single,distractor,target,R,bert_teddybear2,Y,1/24/18,14:22,1325
180124_test2,2,7,grover_ball2,grover_ball2,grover_truck2,inference,target,distractor,L,grover_ball2,Y,1/24/18,14:22,1462
180124_test2,2,8,elmo_cat2,elmo_dog2,elmo_cat2,control_single,distractor,target,R,elmo_cat2,Y,1/24/18,14:22,1791
180124_test2,2,9,grover_car2,grover_car2,grover_bicycle2,control_single,target,distractor,L,grover_car2,Y,1/24/18,14:22,1981
180124_test2,2,10,grover_carrot2,grover_banana2,grover_carrot2,control_double,distractor,target,R,grover_carrot2,Y,1/24/18,14:22,1632
180124_test2,2,11,ernie_apple2,ernie_apple2,ernie_orange2,control_double,target,distractor,L,ernie_apple2,Y,1/24/18,14:22,1255
180124_test2,2,12,bert_banana2,bert_banana2,bert_carrot2,control_single,target,distractor,L,bert_banana2,Y,1/24/18,14:22,1326
180124_test2,2,13,bert_truck2,bert_ball2,bert_truck2,control_single,distractor,target,R,bert_truck2,Y,1/24/18,14:22,1399
180124_test2,2,14,grover_flower2,grover_teddybear2,grover_flower2,inference,distractor,target,R,grover_flower2,Y,1/24/18,14:22,2178
180124_test2,2,15,ernie_flower2,ernie_flower2,ernie_teddybear2,control_single,target,distractor,L,ernie_flower2,Y,1/24/18,14:22,1544
180124_test2,2,16,ernie_cat2,ernie_cat2,ernie_dog2,control_double,target,distractor,L,ernie_cat2,Y,1/24/18,14:22,1600
180124_test2,2,17,ernie_bicycle2,ernie_car2,ernie_bicycle2,inference,distractor,target,L,ernie_car2,N,1/24/18,14:22,1730
180124_test2,2,18,elmo_apple2,elmo_apple2,elmo_orange2,control_single,target,distractor,L,elmo_apple2,Y,1/24/18,14:22,1405
180125_1,1,1,practice1_cow,practice1_cow,practice1_lion,practice,target,distractor,L,practice1_cow,Y,1/25/18,11:13,5733
180125_1,1,2,practice2_monkey,practice2_rabbit,practice2_monkey,practice,distractor,target,R,practice2_monkey,Y,1/25/18,11:13,3451
180125_1c,2,2,practice2_rabbit,practice2_rabbit,practice2_monkey,practice,target,distractor,L,practice2_rabbit,Y,1/25/18,11:16,6730
180125_1c,2,3,grover_orange2,grover_apple2,grover_orange2,control_single,distractor,target,L,grover_apple2,N,1/25/18,11:16,8532
180125_1c,2,1,practice1_lion,practice1_cow,practice1_lion,practice,distractor,target,R,practice1_lion,Y,1/25/18,11:16,3877
180125_test2,1,1,practice1_cow,practice1_cow,practice1_lion,practice,target,distractor,L,practice1_cow,Y,1/25/18,11:22,3025
180125_test2,1,2,practice2_monkey,practice2_rabbit,practice2_monkey,practice,distractor,target,R,practice2_monkey,Y,1/25/18,11:22,1578
180125_test2,1,3,elmo_teddybear,elmo_flower,elmo_teddybear,control_single,distractor,target,R,elmo_teddybear,Y,1/25/18,11:22,1539
180125_test2,1,4,elmo_apple,elmo_apple,elmo_orange,inference,target,distractor,L,elmo_apple,Y,1/25/18,11:22,1565
180125_test2,1,5,grover_dog,grover_cat,grover_dog,control_double,distractor,target,R,grover_dog,Y,1/25/18,11:22,1401
180125_test2,1,6,elmo_banana,elmo_banana,elmo_carrot,control_single,target,distractor,L,elmo_banana,Y,1/25/18,11:22,1231
180125_test2,1,7,grover_car,grover_car,grover_bicycle,inference,target,distractor,L,grover_car,Y,1/25/18,11:22,1639
180125_test2,1,8,ernie_orange,ernie_apple,ernie_orange,control_single,distractor,target,R,ernie_orange,Y,1/25/18,11:22,1071
180125_test2,1,9,bert_cat,bert_cat,bert_dog,control_single,target,distractor,L,bert_cat,Y,1/25/18,11:22,2215
180125_test2,1,10,bert_ball,bert_ball,bert_truck,control_double,target,distractor,L,bert_ball,Y,1/25/18,11:22,1005
180125_test2,1,11,bert_flower,bert_flower,bert_teddybear,control_double,target,distractor,L,bert_flower,Y,1/25/18,11:22,1726
180125_test2,1,12,elmo_truck,elmo_ball,elmo_truck,control_single,distractor,target,R,elmo_truck,Y,1/25/18,11:22,1204
180125_test2,1,13,bert_bicycle,bert_car,bert_bicycle,control_single,distractor,target,R,bert_bicycle,Y,1/25/18,11:22,1189
180125_test2,1,14,bert_carrot,bert_banana,bert_carrot,inference,distractor,target,R,bert_carrot,Y,1/25/18,11:22,1722
180125_test2,1,15,ernie_car,ernie_car,ernie_bicycle,control_single,target,distractor,L,ernie_car,Y,1/25/18,11:22,1199
180125_test2,1,16,grover_orange,grover_apple,grover_orange,control_double,distractor,target,R,grover_orange,Y,1/25/18,11:22,1760
180125_test2,1,17,ernie_teddybear,ernie_flower,ernie_teddybear,inference,distractor,target,R,ernie_teddybear,Y,1/25/18,11:22,1804
180125_test2,1,18,grover_ball,grover_ball,grover_truck,control_single,target,distractor,L,grover_ball,Y,1/25/18,11:22,1507
180125_2,2,1,practice1_lion,practice1_cow,practice1_lion,practice,distractor,target,R,practice1_lion,Y,1/25/18,11:29,5269
180125_2,2,2,practice2_rabbit,practice2_rabbit,practice2_monkey,practice,target,distractor,L,practice2_rabbit,Y,1/25/18,11:29,2840
180125_2,2,3,grover_orange2,grover_apple2,grover_orange2,control_single,distractor,target,R,grover_orange2,Y,1/25/18,11:29,1501
180125_2,2,4,bert_dog2,bert_cat2,bert_dog2,inference,distractor,target,L,bert_cat2,N,1/25/18,11:29,4322
180125_2,2,5,bert_car2,bert_car2,bert_bicycle2,control_double,target,distractor,L,bert_car2,Y,1/25/18,11:29,1525
180125_2,2,6,bert_teddybear2,bert_flower2,bert_teddybear2,control_single,distractor,target,R,bert_teddybear2,Y,1/25/18,11:29,2065
180125_2,2,7,grover_ball2,grover_ball2,grover_truck2,inference,target,distractor,L,grover_ball2,Y,1/25/18,11:29,1880
180125_2,2,8,elmo_cat2,elmo_dog2,elmo_cat2,control_single,distractor,target,R,elmo_cat2,Y,1/25/18,11:29,2242
180125_2,2,9,grover_car2,grover_car2,grover_bicycle2,control_single,target,distractor,L,grover_car2,Y,1/25/18,11:29,1513
180125_2,2,10,grover_carrot2,grover_banana2,grover_carrot2,control_double,distractor,target,R,grover_carrot2,Y,1/25/18,11:29,1296
180125_2,2,11,ernie_apple2,ernie_apple2,ernie_orange2,control_double,target,distractor,L,ernie_apple2,Y,1/25/18,11:29,2297
180125_2,2,12,bert_banana2,bert_banana2,bert_carrot2,control_single,target,distractor,L,bert_banana2,Y,1/25/18,11:29,1506
180125_2,2,13,bert_truck2,bert_ball2,bert_truck2,control_single,distractor,target,R,bert_truck2,Y,1/25/18,11:29,1836
180125_2,2,14,grover_flower2,grover_teddybear2,grover_flower2,inference,distractor,target,R,grover_flower2,Y,1/25/18,11:29,1534
180125_2,2,15,ernie_flower2,ernie_flower2,ernie_teddybear2,control_single,target,distractor,L,ernie_flower2,Y,1/25/18,11:29,1469
180125_2,2,16,ernie_cat2,ernie_cat2,ernie_dog2,control_double,target,distractor,L,ernie_cat2,Y,1/25/18,11:29,2078
180125_2,2,17,ernie_bicycle2,ernie_car2,ernie_bicycle2,inference,distractor,target,R,ernie_bicycle2,Y,1/25/18,11:29,1372
180125_2,2,18,elmo_apple2,elmo_apple2,elmo_orange2,control_single,target,distractor,L,elmo_apple2,Y,1/25/18,11:29,1239
180125_3,1,1,practice1_cow,practice1_cow,practice1_lion,practice,target,distractor,L,practice1_cow,Y,1/25/18,12:19,6871
180125_3,1,2,practice2_monkey,practice2_rabbit,practice2_monkey,practice,distractor,target,R,practice2_monkey,Y,1/25/18,12:19,2795
180125_3,1,3,elmo_teddybear,elmo_flower,elmo_teddybear,control_single,distractor,target,R,elmo_teddybear,Y,1/25/18,12:19,3691
180125_3,1,4,elmo_apple,elmo_apple,elmo_orange,inference,target,distractor,R,elmo_orange,N,1/25/18,12:19,3652
180125_3,1,5,grover_dog,grover_cat,grover_dog,control_double,distractor,target,R,grover_dog,Y,1/25/18,12:19,3511
180125_3,1,6,elmo_banana,elmo_banana,elmo_carrot,control_single,target,distractor,L,elmo_banana,Y,1/25/18,12:19,2632
180125_3,1,7,grover_car,grover_car,grover_bicycle,inference,target,distractor,L,grover_car,Y,1/25/18,12:19,3590
180125_3,1,8,ernie_orange,ernie_apple,ernie_orange,control_single,distractor,target,L,ernie_apple,N,1/25/18,12:19,4113
180125_3,1,9,bert_cat,bert_cat,bert_dog,control_single,target,distractor,R,bert_dog,N,1/25/18,12:19,2998
180125_3,1,10,bert_ball,bert_ball,bert_truck,control_double,target,distractor,L,bert_ball,Y,1/25/18,12:19,5828
180125_3,1,11,bert_flower,bert_flower,bert_teddybear,control_double,target,distractor,L,bert_flower,Y,1/25/18,12:19,2927
180125_3,1,12,elmo_truck,elmo_ball,elmo_truck,control_single,distractor,target,R,elmo_truck,Y,1/25/18,12:19,2474
180125_3,1,13,bert_bicycle,bert_car,bert_bicycle,control_single,distractor,target,R,bert_bicycle,Y,1/25/18,12:19,3297
180125_3,1,14,bert_carrot,bert_banana,bert_carrot,inference,distractor,target,L,bert_banana,N,1/25/18,12:19,3338
180125_3,1,15,ernie_car,ernie_car,ernie_bicycle,control_single,target,distractor,L,ernie_car,Y,1/25/18,12:19,4334
180125_3,1,16,grover_orange,grover_apple,grover_orange,control_double,distractor,target,R,grover_orange,Y,1/25/18,12:19,2556
180125_3,1,17,ernie_teddybear,ernie_flower,ernie_teddybear,inference,distractor,target,R,ernie_teddybear,Y,1/25/18,12:19,3084
180125_3,1,18,grover_ball,grover_ball,grover_truck,control_single,target,distractor,L,grover_ball,Y,1/25/18,12:19,3185
180125_4,1,1,practice1_cow,practice1_cow,practice1_lion,practice,target,distractor,R,practice1_lion,N,1/25/18,12:30,5293
180125_4,1,2,practice2_monkey,practice2_rabbit,practice2_monkey,practice,distractor,target,R,practice2_monkey,Y,1/25/18,12:30,1771
180125_4,1,3,elmo_teddybear,elmo_flower,elmo_teddybear,control_single,distractor,target,R,elmo_teddybear,Y,1/25/18,12:30,4309
180125_4,1,4,elmo_apple,elmo_apple,elmo_orange,inference,target,distractor,L,elmo_apple,Y,1/25/18,12:30,5604
180125_4,1,5,grover_dog,grover_cat,grover_dog,control_double,distractor,target,R,grover_dog,Y,1/25/18,12:30,5161
180125_4,1,6,elmo_banana,elmo_banana,elmo_carrot,control_single,target,distractor,L,elmo_banana,Y,1/25/18,12:30,4523
180125_4,1,7,grover_car,grover_car,grover_bicycle,inference,target,distractor,R,grover_bicycle,N,1/25/18,12:30,5299
180125_4,1,8,ernie_orange,ernie_apple,ernie_orange,control_single,distractor,target,R,ernie_orange,Y,1/25/18,12:30,3790
180125_4,1,9,bert_cat,bert_cat,bert_dog,control_single,target,distractor,L,bert_cat,Y,1/25/18,12:30,6471
180125_4,1,10,bert_ball,bert_ball,bert_truck,control_double,target,distractor,R,bert_truck,N,1/25/18,12:30,3428
180125_4,1,11,bert_flower,bert_flower,bert_teddybear,control_double,target,distractor,R,bert_teddybear,N,1/25/18,12:30,4493
180125_4,1,12,elmo_truck,elmo_ball,elmo_truck,control_single,distractor,target,R,elmo_truck,Y,1/25/18,12:30,6432
180125_4,1,13,bert_bicycle,bert_car,bert_bicycle,control_single,distractor,target,R,bert_bicycle,Y,1/25/18,12:30,5968
180125_4,1,14,bert_carrot,bert_banana,bert_carrot,inference,distractor,target,R,bert_carrot,Y,1/25/18,12:30,3307
180125_4,1,15,ernie_car,ernie_car,ernie_bicycle,control_single,target,distractor,R,ernie_bicycle,N,1/25/18,12:30,3568
180125_4,1,16,grover_orange,grover_apple,grover_orange,control_double,distractor,target,R,grover_orange,Y,1/25/18,12:30,5028
180125_4,1,17,ernie_teddybear,ernie_flower,ernie_teddybear,inference,distractor,target,R,ernie_teddybear,Y,1/25/18,12:30,5578
180125_4,1,18,grover_ball,grover_ball,grover_truck,control_single,target,distractor,R,grover_truck,N,1/25/18,12:30,4483
180125_5,2,1,practice1_lion,practice1_cow,practice1_lion,practice,distractor,target,R,practice1_lion,Y,1/25/18,13:25,3203
180125_5,2,2,practice2_rabbit,practice2_rabbit,practice2_monkey,practice,target,distractor,L,practice2_rabbit,Y,1/25/18,13:25,3424
180125_5,2,3,grover_orange2,grover_apple2,grover_orange2,control_single,distractor,target,R,grover_orange2,Y,1/25/18,13:25,3456
180125_5,2,4,bert_dog2,bert_cat2,bert_dog2,inference,distractor,target,R,bert_dog2,Y,1/25/18,13:25,5304
180125_5,2,5,bert_car2,bert_car2,bert_bicycle2,control_double,target,distractor,L,bert_car2,Y,1/25/18,13:25,5139
180125_5,2,6,bert_teddybear2,bert_flower2,bert_teddybear2,control_single,distractor,target,R,bert_teddybear2,Y,1/25/18,13:25,4374
180125_5,2,7,grover_ball2,grover_ball2,grover_truck2,inference,target,distractor,L,grover_ball2,Y,1/25/18,13:25,3712
180125_5,2,8,elmo_cat2,elmo_dog2,elmo_cat2,control_single,distractor,target,R,elmo_cat2,Y,1/25/18,13:25,3191
180125_5,2,9,grover_car2,grover_car2,grover_bicycle2,control_single,target,distractor,L,grover_car2,Y,1/25/18,13:25,2836
180125_5,2,10,grover_carrot2,grover_banana2,grover_carrot2,control_double,distractor,target,R,grover_carrot2,Y,1/25/18,13:25,2915
180125_5,2,11,ernie_apple2,ernie_apple2,ernie_orange2,control_double,target,distractor,L,ernie_apple2,Y,1/25/18,13:25,2587
180125_5,2,12,bert_banana2,bert_banana2,bert_carrot2,control_single,target,distractor,L,bert_banana2,Y,1/25/18,13:25,2916
180125_5,2,13,bert_truck2,bert_ball2,bert_truck2,control_single,distractor,target,R,bert_truck2,Y,1/25/18,13:25,4523
180125_5,2,14,grover_flower2,grover_teddybear2,grover_flower2,inference,distractor,target,R,grover_flower2,Y,1/25/18,13:25,2662
180125_5,2,15,ernie_flower2,ernie_flower2,ernie_teddybear2,control_single,target,distractor,L,ernie_flower2,Y,1/25/18,13:25,3313
180125_5,2,16,ernie_cat2,ernie_cat2,ernie_dog2,control_double,target,distractor,L,ernie_cat2,Y,1/25/18,13:25,3506
180125_5,2,17,ernie_bicycle2,ernie_car2,ernie_bicycle2,inference,distractor,target,R,ernie_bicycle2,Y,1/25/18,13:25,3278
180125_5,2,18,elmo_apple2,elmo_apple2,elmo_orange2,control_single,target,distractor,L,elmo_apple2,Y,1/25/18,13:25,2811
180126_1,1,1,practice1_cow,practice1_cow,practice1_lion,practice,target,distractor,L,practice1_cow,Y,1/26/18,10:12,7588
180126_1,1,2,practice2_monkey,practice2_rabbit,practice2_monkey,practice,distractor,target,R,practice2_monkey,Y,1/26/18,10:12,2866
180126_1,1,3,elmo_teddybear,elmo_flower,elmo_teddybear,control_single,distractor,target,R,elmo_teddybear,Y,1/26/18,10:12,3735
180126_1,1,4,elmo_apple,elmo_apple,elmo_orange,inference,target,distractor,R,elmo_orange,N,1/26/18,10:12,4549
180126_1,1,5,grover_dog,grover_cat,grover_dog,control_double,distractor,target,R,grover_dog,Y,1/26/18,10:12,2992
180126_1,1,6,elmo_banana,elmo_banana,elmo_carrot,control_single,target,distractor,R,elmo_carrot,N,1/26/18,10:12,4131
180126_1,1,7,grover_car,grover_car,grover_bicycle,inference,target,distractor,L,grover_car,Y,1/26/18,10:12,4573
180126_1,1,8,ernie_orange,ernie_apple,ernie_orange,control_single,distractor,target,R,ernie_orange,Y,1/26/18,10:12,11368
180126_1,1,9,bert_cat,bert_cat,bert_dog,control_single,target,distractor,L,bert_cat,Y,1/26/18,10:12,3362
180126_1,1,10,bert_ball,bert_ball,bert_truck,control_double,target,distractor,L,bert_ball,Y,1/26/18,10:12,3219
180126_1,1,11,bert_flower,bert_flower,bert_teddybear,control_double,target,distractor,R,bert_teddybear,N,1/26/18,10:12,669
180126_1,1,12,elmo_truck,elmo_ball,elmo_truck,control_single,distractor,target,R,elmo_truck,Y,1/26/18,10:12,6473
180126_1,1,13,bert_bicycle,bert_car,bert_bicycle,control_single,distractor,target,R,bert_bicycle,Y,1/26/18,10:12,9604
180126_1,1,14,bert_carrot,bert_banana,bert_carrot,inference,distractor,target,L,bert_banana,N,1/26/18,10:12,3665
180126_1,1,15,ernie_car,ernie_car,ernie_bicycle,control_single,target,distractor,L,ernie_car,Y,1/26/18,10:12,5207
180126_1,1,16,grover_orange,grover_apple,grover_orange,control_double,distractor,target,R,grover_orange,Y,1/26/18,10:12,4535
180126_1,1,17,ernie_teddybear,ernie_flower,ernie_teddybear,inference,distractor,target,R,ernie_teddybear,Y,1/26/18,10:12,6348
180126_1,1,18,grover_ball,grover_ball,grover_truck,control_single,target,distractor,R,grover_truck,N,1/26/18,10:12,3510
180126_1,2,1,practice1_lion,practice1_cow,practice1_lion,practice,distractor,target,R,practice1_lion,Y,1/26/18,10:45,3297
180126_1,2,2,practice2_rabbit,practice2_rabbit,practice2_monkey,practice,target,distractor,L,practice2_rabbit,Y,1/26/18,10:45,586
180126_1,2,3,grover_orange2,grover_apple2,grover_orange2,control_single,distractor,target,R,grover_orange2,Y,1/26/18,10:45,3675
180126_1,2,4,bert_dog2,bert_cat2,bert_dog2,inference,distractor,target,R,bert_dog2,Y,1/26/18,10:45,2989
180126_1,2,5,bert_car2,bert_car2,bert_bicycle2,control_double,target,distractor,L,bert_car2,Y,1/26/18,10:45,3329
180126_1,2,6,bert_teddybear2,bert_flower2,bert_teddybear2,control_single,distractor,target,R,bert_teddybear2,Y,1/26/18,10:45,1692
180126_1,2,7,grover_ball2,grover_ball2,grover_truck2,inference,target,distractor,R,grover_truck2,N,1/26/18,10:45,2888
180126_1,2,8,elmo_cat2,elmo_dog2,elmo_cat2,control_single,distractor,target,R,elmo_cat2,Y,1/26/18,10:45,2937
180126_3,1,1,practice1_cow,practice1_cow,practice1_lion,practice,target,distractor,R,practice1_lion,N,1/26/18,11:05,9435
180126_3,1,2,practice2_monkey,practice2_rabbit,practice2_monkey,practice,distractor,target,R,practice2_monkey,Y,1/26/18,11:05,6112
180126_3,1,3,elmo_teddybear,elmo_flower,elmo_teddybear,control_single,distractor,target,R,elmo_teddybear,Y,1/26/18,11:05,9554
180126_3,1,4,elmo_apple,elmo_apple,elmo_orange,inference,target,distractor,R,elmo_orange,N,1/26/18,11:05,7028
180126_3,1,5,grover_dog,grover_cat,grover_dog,control_double,distractor,target,R,grover_dog,Y,1/26/18,11:05,8938
180126_3,1,6,elmo_banana,elmo_banana,elmo_carrot,control_single,target,distractor,R,elmo_carrot,N,1/26/18,11:05,3170
180126_3,1,7,grover_car,grover_car,grover_bicycle,inference,target,distractor,R,grover_bicycle,N,1/26/18,11:05,19448
180126_3,1,8,ernie_orange,ernie_apple,ernie_orange,control_single,distractor,target,R,ernie_orange,Y,1/26/18,11:05,5124
180126_3,1,9,bert_cat,bert_cat,bert_dog,control_single,target,distractor,R,bert_dog,N,1/26/18,11:05,3749
180126_3,1,10,bert_ball,bert_ball,bert_truck,control_double,target,distractor,R,bert_truck,N,1/26/18,11:05,3558
180126_3,1,11,bert_flower,bert_flower,bert_teddybear,control_double,target,distractor,R,bert_teddybear,N,1/26/18,11:05,10785
180126_3,1,12,elmo_truck,elmo_ball,elmo_truck,control_single,distractor,target,R,elmo_truck,Y,1/26/18,11:05,2977
180126_3,1,13,bert_bicycle,bert_car,bert_bicycle,control_single,distractor,target,R,bert_bicycle,Y,1/26/18,11:05,7264
180126_3,1,14,bert_carrot,bert_banana,bert_carrot,inference,distractor,target,R,bert_carrot,Y,1/26/18,11:05,13539
180126_3,1,15,ernie_car,ernie_car,ernie_bicycle,control_single,target,distractor,R,ernie_bicycle,N,1/26/18,11:05,5235
180126_3,1,16,grover_orange,grover_apple,grover_orange,control_double,distractor,target,R,grover_orange,Y,1/26/18,11:05,7441
180126_3,1,17,ernie_teddybear,ernie_flower,ernie_teddybear,inference,distractor,target,L,ernie_flower,N,1/26/18,11:05,5687
180126_3,1,18,grover_ball,grover_ball,grover_truck,control_single,target,distractor,R,grover_truck,N,1/26/18,11:05,6398
180126_4,1,1,practice1_cow,practice1_cow,practice1_lion,practice,target,distractor,L,practice1_cow,Y,1/26/18,13:41,3965
180126_4,1,2,practice2_monkey,practice2_rabbit,practice2_monkey,practice,distractor,target,R,practice2_monkey,Y,1/26/18,13:41,3376
180126_4,1,3,elmo_teddybear,elmo_flower,elmo_teddybear,control_single,distractor,target,R,elmo_teddybear,Y,1/26/18,13:41,3474
180126_4,1,4,elmo_apple,elmo_apple,elmo_orange,inference,target,distractor,L,elmo_apple,Y,1/26/18,13:41,4266
180126_4,1,5,grover_dog,grover_cat,grover_dog,control_double,distractor,target,R,grover_dog,Y,1/26/18,13:41,1863
180126_4,1,6,elmo_banana,elmo_banana,elmo_carrot,control_single,target,distractor,L,elmo_banana,Y,1/26/18,13:41,2561
180126_4,1,7,grover_car,grover_car,grover_bicycle,inference,target,distractor,L,grover_car,Y,1/26/18,13:41,1459
180126_4,1,8,ernie_orange,ernie_apple,ernie_orange,control_single,distractor,target,R,ernie_orange,Y,1/26/18,13:41,2176
180126_4,1,9,bert_cat,bert_cat,bert_dog,control_single,target,distractor,L,bert_cat,Y,1/26/18,13:41,2244
180126_4,1,10,bert_ball,bert_ball,bert_truck,control_double,target,distractor,L,bert_ball,Y,1/26/18,13:41,2184
180126_4,1,11,bert_flower,bert_flower,bert_teddybear,control_double,target,distractor,L,bert_flower,Y,1/26/18,13:41,3191
180126_4,1,12,elmo_truck,elmo_ball,elmo_truck,control_single,distractor,target,R,elmo_truck,Y,1/26/18,13:41,1715
180126_4,1,13,bert_bicycle,bert_car,bert_bicycle,control_single,distractor,target,R,bert_bicycle,Y,1/26/18,13:41,2763
180126_4,1,14,bert_carrot,bert_banana,bert_carrot,inference,distractor,target,R,bert_carrot,Y,1/26/18,13:41,2019
180126_4,1,15,ernie_car,ernie_car,ernie_bicycle,control_single,target,distractor,L,ernie_car,Y,1/26/18,13:41,1547
180126_4,1,16,grover_orange,grover_apple,grover_orange,control_double,distractor,target,R,grover_orange,Y,1/26/18,13:41,1645
180126_4,1,17,ernie_teddybear,ernie_flower,ernie_teddybear,inference,distractor,target,R,ernie_teddybear,Y,1/26/18,13:41,2017
180126_4,1,18,grover_ball,grover_ball,grover_truck,control_single,target,distractor,L,grover_ball,Y,1/26/18,13:41,1402
Test,1,1,practice1_cow,practice1_cow,practice1_lion,practice,target,distractor,L,practice1_cow,Y,1/31/18,10:24,2493
180201_1,1,1,practice1_cow,practice1_cow,practice1_lion,practice,target,distractor,L,practice1_cow,Y,2/1/18,10:20,2763
180201_1,1,2,practice2_monkey,practice2_rabbit,practice2_monkey,practice,distractor,target,R,practice2_monkey,Y,2/1/18,10:20,1807
180201_1,1,3,elmo_teddybear,elmo_flower,elmo_teddybear,control_single,distractor,target,R,elmo_teddybear,Y,2/1/18,10:20,1917
180201_1,1,4,elmo_apple,elmo_apple,elmo_orange,inference,target,distractor,R,elmo_orange,N,2/1/18,10:20,1670
180201_1,1,5,grover_dog,grover_cat,grover_dog,control_double,distractor,target,R,grover_dog,Y,2/1/18,10:20,2584
180201_1,1,6,elmo_banana,elmo_banana,elmo_carrot,control_single,target,distractor,L,elmo_banana,Y,2/1/18,10:20,1959
180201_1,1,7,grover_car,grover_car,grover_bicycle,inference,target,distractor,R,grover_bicycle,N,2/1/18,10:20,1779
180201_1,1,8,ernie_orange,ernie_apple,ernie_orange,control_single,distractor,target,R,ernie_orange,Y,2/1/18,10:20,1803
180201_1,1,9,bert_cat,bert_cat,bert_dog,control_single,target,distractor,L,bert_cat,Y,2/1/18,10:20,2725
180201_1,1,10,bert_ball,bert_ball,bert_truck,control_double,target,distractor,L,bert_ball,Y,2/1/18,10:20,1992
180201_1,1,11,bert_flower,bert_flower,bert_teddybear,control_double,target,distractor,L,bert_flower,Y,2/1/18,10:20,2001
180201_1,1,12,elmo_truck,elmo_ball,elmo_truck,control_single,distractor,target,R,elmo_truck,Y,2/1/18,10:20,1989
180201_1,1,13,bert_bicycle,bert_car,bert_bicycle,control_single,distractor,target,R,bert_bicycle,Y,2/1/18,10:20,442
180201_1,1,14,bert_carrot,bert_banana,bert_carrot,inference,distractor,target,R,bert_carrot,Y,2/1/18,10:20,3843
180201_1,1,15,ernie_car,ernie_car,ernie_bicycle,control_single,target,distractor,R,ernie_bicycle,N,2/1/18,10:20,3117
180201_1,1,16,grover_orange,grover_apple,grover_orange,control_double,distractor,target,R,grover_orange,Y,2/1/18,10:20,1631
180201_1,1,17,ernie_teddybear,ernie_flower,ernie_teddybear,inference,distractor,target,R,ernie_teddybear,Y,2/1/18,10:20,1824
180201_1,1,18,grover_ball,grover_ball,grover_truck,control_single,target,distractor,L,grover_ball,Y,2/1/18,10:20,2402
180201_2,2,1,practice1_lion,practice1_cow,practice1_lion,practice,distractor,target,L,practice1_cow,N,2/1/18,10:58,6326
180201_2second,2,1,practice1_lion,practice1_cow,practice1_lion,practice,distractor,target,R,practice1_lion,Y,2/1/18,12:19,1817
Test,1,1,practice1_cow,practice1_cow,practice1_lion,practice,target,distractor,L,practice1_cow,Y,2/7/18,10:36,2347
Test,1,2,practice2_monkey,practice2_rabbit,practice2_monkey,practice,distractor,target,R,practice2_monkey,Y,2/7/18,10:36,2991
Test,1,3,elmo_teddybear,elmo_flower,elmo_teddybear,control_single,distractor,target,R,elmo_teddybear,Y,2/7/18,10:36,1532
Test,1,4,elmo_apple,elmo_apple,elmo_orange,inference,target,distractor,L,elmo_apple,Y,2/7/18,10:36,2295
Test,1,5,grover_dog,grover_cat,grover_dog,control_double,distractor,target,R,grover_dog,Y,2/7/18,10:36,3051
Test,1,6,elmo_banana,elmo_banana,elmo_carrot,control_single,target,distractor,L,elmo_banana,Y,2/7/18,10:36,3040
Test,1,7,grover_car,grover_car,grover_bicycle,inference,target,distractor,L,grover_car,Y,2/7/18,10:36,3169
Test,1,8,ernie_orange,ernie_apple,ernie_orange,control_single,distractor,target,R,ernie_orange,Y,2/7/18,10:36,1405
Test,1,9,bert_cat,bert_cat,bert_dog,control_single,target,distractor,L,bert_cat,Y,2/7/18,10:36,1451
Test,1,10,bert_ball,bert_ball,bert_truck,control_double,target,distractor,R,bert_truck,N,2/7/18,10:36,2500
Test,1,11,bert_flower,bert_flower,bert_teddybear,control_double,target,distractor,L,bert_flower,Y,2/7/18,10:36,2055
Test,1,12,elmo_truck,elmo_ball,elmo_truck,control_single,distractor,target,R,elmo_truck,Y,2/7/18,10:36,3246
Test,1,13,bert_bicycle,bert_car,bert_bicycle,control_single,distractor,target,R,bert_bicycle,Y,2/7/18,10:36,2052
Test,1,14,bert_carrot,bert_banana,bert_carrot,inference,distractor,target,L,bert_banana,N,2/7/18,10:36,2284
Test,1,15,ernie_car,ernie_car,ernie_bicycle,control_single,target,distractor,L,ernie_car,Y,2/7/18,10:36,2003
Test,1,16,grover_orange,grover_apple,grover_orange,control_double,distractor,target,R,grover_orange,Y,2/7/18,10:36,1656
Test,1,17,ernie_teddybear,ernie_flower,ernie_teddybear,inference,distractor,target,R,ernie_teddybear,Y,2/7/18,10:36,1749
Test,1,18,grover_ball,grover_ball,grover_truck,control_single,target,distractor,L,grover_ball,Y,2/7/18,10:36,1860
180206_1,2,1,practice1_lion,practice1_cow,practice1_lion,practice,distractor,target,R,practice1_lion,Y,2/7/18,12:05,3738
180206_1,2,2,practice2_rabbit,practice2_rabbit,practice2_monkey,practice,target,distractor,L,practice2_rabbit,Y,2/7/18,12:05,2231
180206_1,2,3,grover_orange2,grover_apple2,grover_orange2,control_single,distractor,target,R,grover_orange2,Y,2/7/18,12:05,2141
180206_1,2,4,bert_dog2,bert_cat2,bert_dog2,inference,distractor,target,R,bert_dog2,Y,2/7/18,12:05,3290
180206_1,2,5,bert_car2,bert_car2,bert_bicycle2,control_double,target,distractor,L,bert_car2,Y,2/7/18,12:05,2330
180206_1,2,6,bert_teddybear2,bert_flower2,bert_teddybear2,control_single,distractor,target,R,bert_teddybear2,Y,2/7/18,12:05,2084
180206_1,2,7,grover_ball2,grover_ball2,grover_truck2,inference,target,distractor,R,grover_truck2,N,2/7/18,12:05,2598
180206_1,2,8,elmo_cat2,elmo_dog2,elmo_cat2,control_single,distractor,target,R,elmo_cat2,Y,2/7/18,12:05,1557
180206_1,2,9,grover_car2,grover_car2,grover_bicycle2,control_single,target,distractor,L,grover_car2,Y,2/7/18,12:05,1439
180206_1,2,10,grover_carrot2,grover_banana2,grover_carrot2,control_double,distractor,target,R,grover_carrot2,Y,2/7/18,12:05,1625
180206_1,2,11,ernie_apple2,ernie_apple2,ernie_orange2,control_double,target,distractor,L,ernie_apple2,Y,2/7/18,12:05,1909
180206_1,2,12,bert_banana2,bert_banana2,bert_carrot2,control_single,target,distractor,L,bert_banana2,Y,2/7/18,12:05,1301
180206_1,2,13,bert_truck2,bert_ball2,bert_truck2,control_single,distractor,target,R,bert_truck2,Y,2/7/18,12:05,1438
180206_1,2,14,grover_flower2,grover_teddybear2,grover_flower2,inference,distractor,target,R,grover_flower2,Y,2/7/18,12:05,2294
180206_1,2,15,ernie_flower2,ernie_flower2,ernie_teddybear2,control_single,target,distractor,L,ernie_flower2,Y,2/7/18,12:05,2137
180206_1,2,16,ernie_cat2,ernie_cat2,ernie_dog2,control_double,target,distractor,L,ernie_cat2,Y,2/7/18,12:05,1623
180206_1,2,17,ernie_bicycle2,ernie_car2,ernie_bicycle2,inference,distractor,target,R,ernie_bicycle2,Y,2/7/18,12:05,1646
180206_1,2,18,elmo_apple2,elmo_apple2,elmo_orange2,control_single,target,distractor,L,elmo_apple2,Y,2/7/18,12:05,1512
180207_2,1,1,practice1_cow,practice1_cow,practice1_lion,practice,target,distractor,R,practice1_lion,N,2/7/18,12:13,6104
180207_2,1,2,practice2_monkey,practice2_rabbit,practice2_monkey,practice,distractor,target,R,practice2_monkey,Y,2/7/18,12:13,5521
180207_2,1,3,elmo_teddybear,elmo_flower,elmo_teddybear,control_single,distractor,target,R,elmo_teddybear,Y,2/7/18,12:13,3603
180207_2,1,4,elmo_apple,elmo_apple,elmo_orange,inference,target,distractor,L,elmo_apple,Y,2/7/18,12:13,5686
180207_2,1,5,grover_dog,grover_cat,grover_dog,control_double,distractor,target,R,grover_dog,Y,2/7/18,12:13,7841
180207_2,1,6,elmo_banana,elmo_banana,elmo_carrot,control_single,target,distractor,L,elmo_banana,Y,2/7/18,12:13,4657
180207_2,1,7,grover_car,grover_car,grover_bicycle,inference,target,distractor,L,grover_car,Y,2/7/18,12:13,7143
180207_2,1,8,ernie_orange,ernie_apple,ernie_orange,control_single,distractor,target,R,ernie_orange,Y,2/7/18,12:13,3894
180207_2,1,9,bert_cat,bert_cat,bert_dog,control_single,target,distractor,L,bert_cat,Y,2/7/18,12:13,4018
180207_2,1,10,bert_ball,bert_ball,bert_truck,control_double,target,distractor,L,bert_ball,Y,2/7/18,12:13,20359
180207_3,2,1,practice1_lion,practice1_cow,practice1_lion,practice,distractor,target,L,practice1_cow,N,2/7/18,12:37,4225
180207_3,2,2,practice2_rabbit,practice2_rabbit,practice2_monkey,practice,target,distractor,L,practice2_rabbit,Y,2/7/18,12:37,2942
180207_3,2,3,grover_orange2,grover_apple2,grover_orange2,control_single,distractor,target,L,grover_apple2,N,2/7/18,12:37,3844
180207_3,2,4,bert_dog2,bert_cat2,bert_dog2,inference,distractor,target,L,bert_cat2,N,2/7/18,12:37,3240
180207_3,2,5,bert_car2,bert_car2,bert_bicycle2,control_double,target,distractor,L,bert_car2,Y,2/7/18,12:37,3643
180207_3,2,6,bert_teddybear2,bert_flower2,bert_teddybear2,control_single,distractor,target,R,bert_teddybear2,Y,2/7/18,12:37,2100
180207_3,2,7,grover_ball2,grover_ball2,grover_truck2,inference,target,distractor,R,grover_truck2,N,2/7/18,12:37,3227
180207_3,2,8,elmo_cat2,elmo_dog2,elmo_cat2,control_single,distractor,target,R,elmo_cat2,Y,2/7/18,12:37,3525
180207_3,2,9,grover_car2,grover_car2,grover_bicycle2,control_single,target,distractor,L,grover_car2,Y,2/7/18,12:37,2724
180207_3,2,10,grover_carrot2,grover_banana2,grover_carrot2,control_double,distractor,target,L,grover_banana2,N,2/7/18,12:37,3875
180207_3,2,11,ernie_apple2,ernie_apple2,ernie_orange2,control_double,target,distractor,R,ernie_orange2,N,2/7/18,12:37,2892
180207_3,2,12,bert_banana2,bert_banana2,bert_carrot2,control_single,target,distractor,L,bert_banana2,Y,2/7/18,12:37,3549
180207_3,2,13,bert_truck2,bert_ball2,bert_truck2,control_single,distractor,target,L,bert_ball2,N,2/7/18,12:37,2991
180207_3,2,14,grover_flower2,grover_teddybear2,grover_flower2,inference,distractor,target,L,grover_teddybear2,N,2/7/18,12:37,3130
180207_3,2,15,ernie_flower2,ernie_flower2,ernie_teddybear2,control_single,target,distractor,L,ernie_flower2,Y,2/7/18,12:37,2138
180207_3,2,16,ernie_cat2,ernie_cat2,ernie_dog2,control_double,target,distractor,L,ernie_cat2,Y,2/7/18,12:37,2452
180207_3,2,17,ernie_bicycle2,ernie_car2,ernie_bicycle2,inference,distractor,target,L,ernie_car2,N,2/7/18,12:37,2551
180207_3,2,18,elmo_apple2,elmo_apple2,elmo_orange2,control_single,target,distractor,L,elmo_apple2,Y,2/7/18,12:37,3146
180208_2,1,1,practice1_cow,practice1_cow,practice1_lion,practice,target,distractor,L,practice1_cow,Y,2/8/18,13:33,3050
180208_2,1,2,practice2_monkey,practice2_rabbit,practice2_monkey,practice,distractor,target,R,practice2_monkey,Y,2/8/18,13:33,2750
180208_2,1,3,elmo_teddybear,elmo_flower,elmo_teddybear,control_single,distractor,target,R,elmo_teddybear,Y,2/8/18,13:33,2948
180208_2,1,4,elmo_apple,elmo_apple,elmo_orange,inference,target,distractor,L,elmo_apple,Y,2/8/18,13:33,2664
180208_2,1,5,grover_dog,grover_cat,grover_dog,control_double,distractor,target,R,grover_dog,Y,2/8/18,13:33,3201
180208_2,1,6,elmo_banana,elmo_banana,elmo_carrot,control_single,target,distractor,L,elmo_banana,Y,2/8/18,13:33,6305
180208_2,1,7,grover_car,grover_car,grover_bicycle,inference,target,distractor,L,grover_car,Y,2/8/18,13:33,4579
180208_2,1,8,ernie_orange,ernie_apple,ernie_orange,control_single,distractor,target,R,ernie_orange,Y,2/8/18,13:33,2973
180208_2,1,9,bert_cat,bert_cat,bert_dog,control_single,target,distractor,L,bert_cat,Y,2/8/18,13:33,3717
180208_2,1,10,bert_ball,bert_ball,bert_truck,control_double,target,distractor,L,bert_ball,Y,2/8/18,13:33,3640
180208_2,1,11,bert_flower,bert_flower,bert_teddybear,control_double,target,distractor,L,bert_flower,Y,2/8/18,13:33,2419
180208_2,1,12,elmo_truck,elmo_ball,elmo_truck,control_single,distractor,target,R,elmo_truck,Y,2/8/18,13:33,3382
180208_2,1,13,bert_bicycle,bert_car,bert_bicycle,control_single,distractor,target,R,bert_bicycle,Y,2/8/18,13:33,1797
180208_2,1,14,bert_carrot,bert_banana,bert_carrot,inference,distractor,target,R,bert_carrot,Y,2/8/18,13:33,2266
180208_2,1,15,ernie_car,ernie_car,ernie_bicycle,control_single,target,distractor,L,ernie_car,Y,2/8/18,13:33,1935
180208_2,1,16,grover_orange,grover_apple,grover_orange,control_double,distractor,target,R,grover_orange,Y,2/8/18,13:33,2031
180208_2,1,17,ernie_teddybear,ernie_flower,ernie_teddybear,inference,distractor,target,R,ernie_teddybear,Y,2/8/18,13:33,3747
180208_2,1,18,grover_ball,grover_ball,grover_truck,control_single,target,distractor,L,grover_ball,Y,2/8/18,13:33,2502
180208_3,2,1,practice1_lion,practice1_cow,practice1_lion,practice,distractor,target,R,practice1_lion,Y,2/8/18,14:11,3771
180208_3,2,2,practice2_rabbit,practice2_rabbit,practice2_monkey,practice,target,distractor,L,practice2_rabbit,Y,2/8/18,14:11,2707
180208_3,2,3,grover_orange2,grover_apple2,grover_orange2,control_single,distractor,target,R,grover_orange2,Y,2/8/18,14:11,3545
180208_3,2,4,bert_dog2,bert_cat2,bert_dog2,inference,distractor,target,L,bert_cat2,N,2/8/18,14:11,11373
180208_3,2,5,bert_car2,bert_car2,bert_bicycle2,control_double,target,distractor,L,bert_car2,Y,2/8/18,14:11,2792
180208_3,2,6,bert_teddybear2,bert_flower2,bert_teddybear2,control_single,distractor,target,R,bert_teddybear2,Y,2/8/18,14:11,4521
180208_3,2,7,grover_ball2,grover_ball2,grover_truck2,inference,target,distractor,R,grover_truck2,N,2/8/18,14:11,7700
180208_3,2,8,elmo_cat2,elmo_dog2,elmo_cat2,control_single,distractor,target,R,elmo_cat2,Y,2/8/18,14:11,3018
180208_3,2,9,grover_car2,grover_car2,grover_bicycle2,control_single,target,distractor,L,grover_car2,Y,2/8/18,14:11,4957
180208_3,2,10,grover_carrot2,grover_banana2,grover_carrot2,control_double,distractor,target,R,grover_carrot2,Y,2/8/18,14:11,3091
180208_3,2,11,ernie_apple2,ernie_apple2,ernie_orange2,control_double,target,distractor,L,ernie_apple2,Y,2/8/18,14:11,4976
180208_3,2,12,bert_banana2,bert_banana2,bert_carrot2,control_single,target,distractor,L,bert_banana2,Y,2/8/18,14:11,3064
180208_3,2,13,bert_truck2,bert_ball2,bert_truck2,control_single,distractor,target,R,bert_truck2,Y,2/8/18,14:11,3540
180208_3,2,14,grover_flower2,grover_teddybear2,grover_flower2,inference,distractor,target,R,grover_flower2,Y,2/8/18,14:11,3335
180208_3,2,15,ernie_flower2,ernie_flower2,ernie_teddybear2,control_single,target,distractor,L,ernie_flower2,Y,2/8/18,14:11,3054
180208_3,2,16,ernie_cat2,ernie_cat2,ernie_dog2,control_double,target,distractor,L,ernie_cat2,Y,2/8/18,14:11,2753
180208_3,2,17,ernie_bicycle2,ernie_car2,ernie_bicycle2,inference,distractor,target,R,ernie_bicycle2,Y,2/8/18,14:11,2812
180208_3,2,18,elmo_apple2,elmo_apple2,elmo_orange2,control_single,target,distractor,L,elmo_apple2,Y,2/8/18,14:11,2729
180208_4,1,1,practice1_cow,practice1_cow,practice1_lion,practice,target,distractor,R,practice1_lion,N,2/8/18,14:27,5072
180208_4,1,2,practice2_monkey,practice2_rabbit,practice2_monkey,practice,distractor,target,R,practice2_monkey,Y,2/8/18,14:27,1576
180208_4,1,3,elmo_teddybear,elmo_flower,elmo_teddybear,control_single,distractor,target,R,elmo_teddybear,Y,2/8/18,14:27,3565
180208_4,1,4,elmo_apple,elmo_apple,elmo_orange,inference,target,distractor,R,elmo_orange,N,2/8/18,14:27,3709
180208_4,1,5,grover_dog,grover_cat,grover_dog,control_double,distractor,target,R,grover_dog,Y,2/8/18,14:27,1282
180208_4,1,6,elmo_banana,elmo_banana,elmo_carrot,control_single,target,distractor,R,elmo_carrot,N,2/8/18,14:27,357
180208_4,1,7,grover_car,grover_car,grover_bicycle,inference,target,distractor,R,grover_bicycle,N,2/8/18,14:27,3429
180208_4,1,8,ernie_orange,ernie_apple,ernie_orange,control_single,distractor,target,R,ernie_orange,Y,2/8/18,14:27,4773
180208_4,1,9,bert_cat,bert_cat,bert_dog,control_single,target,distractor,L,bert_cat,Y,2/8/18,14:27,4448
180208_4,1,10,bert_ball,bert_ball,bert_truck,control_double,target,distractor,L,bert_ball,Y,2/8/18,14:27,3995
180208_4,1,11,bert_flower,bert_flower,bert_teddybear,control_double,target,distractor,R,bert_teddybear,N,2/8/18,14:27,4497
180208_4,1,12,elmo_truck,elmo_ball,elmo_truck,control_single,distractor,target,R,elmo_truck,Y,2/8/18,14:27,2539
180208_4,1,13,bert_bicycle,bert_car,bert_bicycle,control_single,distractor,target,R,bert_bicycle,Y,2/8/18,14:27,307
180208_4,1,14,bert_carrot,bert_banana,bert_carrot,inference,distractor,target,L,bert_banana,N,2/8/18,14:27,18946
180208_5,1,1,practice1_cow,practice1_cow,practice1_lion,practice,target,distractor,L,practice1_cow,Y,2/8/18,14:52,3099
180208_5,1,2,practice2_monkey,practice2_rabbit,practice2_monkey,practice,distractor,target,R,practice2_monkey,Y,2/8/18,14:52,1717
180208_5,1,3,elmo_teddybear,elmo_flower,elmo_teddybear,control_single,distractor,target,R,elmo_teddybear,Y,2/8/18,14:52,1823
180208_5,1,4,elmo_apple,elmo_apple,elmo_orange,inference,target,distractor,L,elmo_apple,Y,2/8/18,14:52,2807
180208_5,1,5,grover_dog,grover_cat,grover_dog,control_double,distractor,target,R,grover_dog,Y,2/8/18,14:52,2824
180208_5,1,6,elmo_banana,elmo_banana,elmo_carrot,control_single,target,distractor,L,elmo_banana,Y,2/8/18,14:52,7766
180208_5,1,7,grover_car,grover_car,grover_bicycle,inference,target,distractor,L,grover_car,Y,2/8/18,14:52,5347
180208_5,1,8,ernie_orange,ernie_apple,ernie_orange,control_single,distractor,target,R,ernie_orange,Y,2/8/18,14:52,2038
180208_5,1,9,bert_cat,bert_cat,bert_dog,control_single,target,distractor,L,bert_cat,Y,2/8/18,14:52,2641
180208_5,1,10,bert_ball,bert_ball,bert_truck,control_double,target,distractor,L,bert_ball,Y,2/8/18,14:52,3685
180208_5,1,11,bert_flower,bert_flower,bert_teddybear,control_double,target,distractor,L,bert_flower,Y,2/8/18,14:52,5541
180208_5,1,12,elmo_truck,elmo_ball,elmo_truck,control_single,distractor,target,R,elmo_truck,Y,2/8/18,14:52,8277
180208_5,1,13,bert_bicycle,bert_car,bert_bicycle,control_single,distractor,target,R,bert_bicycle,Y,2/8/18,14:52,2077
180208_5,1,14,bert_carrot,bert_banana,bert_carrot,inference,distractor,target,L,bert_banana,N,2/8/18,14:52,6437
180208_5,1,15,ernie_car,ernie_car,ernie_bicycle,control_single,target,distractor,R,ernie_bicycle,N,2/8/18,14:52,6407
180208_5,1,16,grover_orange,grover_apple,grover_orange,control_double,distractor,target,R,grover_orange,Y,2/8/18,14:52,1903
180208_5,1,17,ernie_teddybear,ernie_flower,ernie_teddybear,inference,distractor,target,R,ernie_teddybear,Y,2/8/18,14:52,5600
180208_5,1,18,grover_ball,grover_ball,grover_truck,control_single,target,distractor,R,grover_truck,N,2/8/18,14:52,1309
180209_1,1,1,practice1_cow,practice1_cow,practice1_lion,practice,target,distractor,L,practice1_cow,Y,2/9/18,10:19,4367
180209_1,1,2,practice2_monkey,practice2_rabbit,practice2_monkey,practice,distractor,target,R,practice2_monkey,Y,2/9/18,10:19,2294
180209_1,1,3,elmo_teddybear,elmo_flower,elmo_teddybear,control_single,distractor,target,R,elmo_teddybear,Y,2/9/18,10:19,3546
180209_1,1,4,elmo_apple,elmo_apple,elmo_orange,inference,target,distractor,R,elmo_orange,N,2/9/18,10:19,2962
180209_1,1,5,grover_dog,grover_cat,grover_dog,control_double,distractor,target,R,grover_dog,Y,2/9/18,10:19,2581
180209_1,1,6,elmo_banana,elmo_banana,elmo_carrot,control_single,target,distractor,R,elmo_carrot,N,2/9/18,10:19,3269
180209_1,1,7,grover_car,grover_car,grover_bicycle,inference,target,distractor,R,grover_bicycle,N,2/9/18,10:19,4491
180209_1,1,8,ernie_orange,ernie_apple,ernie_orange,control_single,distractor,target,R,ernie_orange,Y,2/9/18,10:19,3635
180209_1,1,9,bert_cat,bert_cat,bert_dog,control_single,target,distractor,L,bert_cat,Y,2/9/18,10:19,2194
180209_1,1,10,bert_ball,bert_ball,bert_truck,control_double,target,distractor,R,bert_truck,N,2/9/18,10:19,3345
180209_1,1,11,bert_flower,bert_flower,bert_teddybear,control_double,target,distractor,L,bert_flower,Y,2/9/18,10:19,3208
180209_1,1,12,elmo_truck,elmo_ball,elmo_truck,control_single,distractor,target,R,elmo_truck,Y,2/9/18,10:19,3154
180209_1,1,13,bert_bicycle,bert_car,bert_bicycle,control_single,distractor,target,R,bert_bicycle,Y,2/9/18,10:19,1425
180209_1,1,14,bert_carrot,bert_banana,bert_carrot,inference,distractor,target,R,bert_carrot,Y,2/9/18,10:19,2219
180209_1,1,15,ernie_car,ernie_car,ernie_bicycle,control_single,target,distractor,L,ernie_car,Y,2/9/18,10:19,2588
180209_1,1,16,grover_orange,grover_apple,grover_orange,control_double,distractor,target,L,grover_apple,N,2/9/18,10:19,3336
180209_1,1,17,ernie_teddybear,ernie_flower,ernie_teddybear,inference,distractor,target,R,ernie_teddybear,Y,2/9/18,10:19,6380
180209_1,1,18,grover_ball,grover_ball,grover_truck,control_single,target,distractor,L,grover_ball,Y,2/9/18,10:19,3350
180209_2,2,1,practice1_lion,practice1_cow,practice1_lion,practice,distractor,target,R,practice1_lion,Y,2/9/18,10:49,3811
180209_2,2,2,practice2_rabbit,practice2_rabbit,practice2_monkey,practice,target,distractor,R,practice2_monkey,N,2/9/18,10:49,2992
180209_2,2,3,grover_orange2,grover_apple2,grover_orange2,control_single,distractor,target,R,grover_orange2,Y,2/9/18,10:49,2235
180209_2,2,4,bert_dog2,bert_cat2,bert_dog2,inference,distractor,target,R,bert_dog2,Y,2/9/18,10:49,2378
180209_2,2,5,bert_car2,bert_car2,bert_bicycle2,control_double,target,distractor,R,bert_bicycle2,N,2/9/18,10:49,2991
180209_2,2,6,bert_teddybear2,bert_flower2,bert_teddybear2,control_single,distractor,target,R,bert_teddybear2,Y,2/9/18,10:49,3035
180209_2,2,7,grover_ball2,grover_ball2,grover_truck2,inference,target,distractor,R,grover_truck2,N,2/9/18,10:49,2507
180209_2,2,8,elmo_cat2,elmo_dog2,elmo_cat2,control_single,distractor,target,R,elmo_cat2,Y,2/9/18,10:49,3609
180209_2,2,9,grover_car2,grover_car2,grover_bicycle2,control_single,target,distractor,L,grover_car2,Y,2/9/18,10:49,3558
180209_2,2,10,grover_carrot2,grover_banana2,grover_carrot2,control_double,distractor,target,R,grover_carrot2,Y,2/9/18,10:49,7476
180209_2,2,11,ernie_apple2,ernie_apple2,ernie_orange2,control_double,target,distractor,L,ernie_apple2,Y,2/9/18,10:49,3724
180209_2,2,12,bert_banana2,bert_banana2,bert_carrot2,control_single,target,distractor,L,bert_banana2,Y,2/9/18,10:49,2947
180209_2,2,13,bert_truck2,bert_ball2,bert_truck2,control_single,distractor,target,L,bert_ball2,N,2/9/18,10:49,5040
180209_2,2,14,grover_flower2,grover_teddybear2,grover_flower2,inference,distractor,target,L,grover_teddybear2,N,2/9/18,10:49,3352
180209_2,2,15,ernie_flower2,ernie_flower2,ernie_teddybear2,control_single,target,distractor,L,ernie_flower2,Y,2/9/18,10:49,3713
180209_2,2,16,ernie_cat2,ernie_cat2,ernie_dog2,control_double,target,distractor,L,ernie_cat2,Y,2/9/18,10:49,3994
180209_2,2,17,ernie_bicycle2,ernie_car2,ernie_bicycle2,inference,distractor,target,L,ernie_car2,N,2/9/18,10:49,3126
180209_2,2,18,elmo_apple2,elmo_apple2,elmo_orange2,control_single,target,distractor,R,elmo_orange2,N,2/9/18,10:49,4812
180209_3,1,1,practice1_cow,practice1_cow,practice1_lion,practice,target,distractor,L,practice1_cow,Y,2/9/18,12:00,6039
180209_3,1,2,practice2_monkey,practice2_rabbit,practice2_monkey,practice,distractor,target,R,practice2_monkey,Y,2/9/18,12:00,2226
180209_3,1,3,elmo_teddybear,elmo_flower,elmo_teddybear,control_single,distractor,target,R,elmo_teddybear,Y,2/9/18,12:00,2605
180209_3,1,4,elmo_apple,elmo_apple,elmo_orange,inference,target,distractor,L,elmo_apple,Y,2/9/18,12:00,2565
180209_3,1,5,grover_dog,grover_cat,grover_dog,control_double,distractor,target,R,grover_dog,Y,2/9/18,12:00,2509
180209_3,1,6,elmo_banana,elmo_banana,elmo_carrot,control_single,target,distractor,L,elmo_banana,Y,2/9/18,12:00,2279
180209_3,1,7,grover_car,grover_car,grover_bicycle,inference,target,distractor,L,grover_car,Y,2/9/18,12:00,2443
180209_3,1,8,ernie_orange,ernie_apple,ernie_orange,control_single,distractor,target,R,ernie_orange,Y,2/9/18,12:00,3433
180209_3,1,9,bert_cat,bert_cat,bert_dog,control_single,target,distractor,L,bert_cat,Y,2/9/18,12:00,2833
180209_3,1,10,bert_ball,bert_ball,bert_truck,control_double,target,distractor,L,bert_ball,Y,2/9/18,12:00,2478
180209_3,1,11,bert_flower,bert_flower,bert_teddybear,control_double,target,distractor,L,bert_flower,Y,2/9/18,12:00,2919
180209_3,1,12,elmo_truck,elmo_ball,elmo_truck,control_single,distractor,target,R,elmo_truck,Y,2/9/18,12:00,4653
180209_3,1,13,bert_bicycle,bert_car,bert_bicycle,control_single,distractor,target,R,bert_bicycle,Y,2/9/18,12:00,2574
180209_3,1,14,bert_carrot,bert_banana,bert_carrot,inference,distractor,target,R,bert_carrot,Y,2/9/18,12:00,2486
180209_3,1,15,ernie_car,ernie_car,ernie_bicycle,control_single,target,distractor,L,ernie_car,Y,2/9/18,12:00,1750
180209_3,1,16,grover_orange,grover_apple,grover_orange,control_double,distractor,target,L,grover_apple,N,2/9/18,12:00,2743
180209_3,1,17,ernie_teddybear,ernie_flower,ernie_teddybear,inference,distractor,target,R,ernie_teddybear,Y,2/9/18,12:00,3042
180209_3,1,18,grover_ball,grover_ball,grover_truck,control_single,target,distractor,L,grover_ball,Y,2/9/18,12:00,1953
180209_4,1,1,practice1_cow,practice1_cow,practice1_lion,practice,target,distractor,R,practice1_lion,N,2/9/18,12:23,3404
180209_4,1,2,practice2_monkey,practice2_rabbit,practice2_monkey,practice,distractor,target,R,practice2_monkey,Y,2/9/18,12:23,1836
180209_4,1,3,elmo_teddybear,elmo_flower,elmo_teddybear,control_single,distractor,target,R,elmo_teddybear,Y,2/9/18,12:23,3297
180209_4,1,4,elmo_apple,elmo_apple,elmo_orange,inference,target,distractor,R,elmo_orange,N,2/9/18,12:23,2037
180209_4,1,5,grover_dog,grover_cat,grover_dog,control_double,distractor,target,L,grover_cat,N,2/9/18,12:23,896
180209_4,1,6,elmo_banana,elmo_banana,elmo_carrot,control_single,target,distractor,R,elmo_carrot,N,2/9/18,12:23,3125
180209_4,1,7,grover_car,grover_car,grover_bicycle,inference,target,distractor,R,grover_bicycle,N,2/9/18,12:23,2641
180209_4,1,8,ernie_orange,ernie_apple,ernie_orange,control_single,distractor,target,R,ernie_orange,Y,2/9/18,12:23,3554
180209_4,1,9,bert_cat,bert_cat,bert_dog,control_single,target,distractor,R,bert_dog,N,2/9/18,12:23,3553
180209_4,1,10,bert_ball,bert_ball,bert_truck,control_double,target,distractor,L,bert_ball,Y,2/9/18,12:23,3603
180209_4,1,11,bert_flower,bert_flower,bert_teddybear,control_double,target,distractor,L,bert_flower,Y,2/9/18,12:23,4775
180209_4,1,12,elmo_truck,elmo_ball,elmo_truck,control_single,distractor,target,R,elmo_truck,Y,2/9/18,12:23,2928
180209_4,1,13,bert_bicycle,bert_car,bert_bicycle,control_single,distractor,target,R,bert_bicycle,Y,2/9/18,12:23,3369
180209_4,1,14,bert_carrot,bert_banana,bert_carrot,inference,distractor,target,R,bert_carrot,Y,2/9/18,12:23,2278
180209_4,1,15,ernie_car,ernie_car,ernie_bicycle,control_single,target,distractor,L,ernie_car,Y,2/9/18,12:23,3256
180209_4,1,16,grover_orange,grover_apple,grover_orange,control_double,distractor,target,R,grover_orange,Y,2/9/18,12:23,3526
180209_4,1,17,ernie_teddybear,ernie_flower,ernie_teddybear,inference,distractor,target,R,ernie_teddybear,Y,2/9/18,12:23,2872
180209_4,1,18,grover_ball,grover_ball,grover_truck,control_single,target,distractor,L,grover_ball,Y,2/9/18,12:23,2804
180209_5,1,1,practice1_cow,practice1_cow,practice1_lion,practice,target,distractor,R,practice1_lion,N,2/9/18,13:48,3643
180209_5,1,2,practice2_monkey,practice2_rabbit,practice2_monkey,practice,distractor,target,R,practice2_monkey,Y,2/9/18,13:48,2358
180209_5,1,3,elmo_teddybear,elmo_flower,elmo_teddybear,control_single,distractor,target,R,elmo_teddybear,Y,2/9/18,13:48,2439
180209_5,1,4,elmo_apple,elmo_apple,elmo_orange,inference,target,distractor,R,elmo_orange,N,2/9/18,13:48,2438
180209_5,1,5,grover_dog,grover_cat,grover_dog,control_double,distractor,target,R,grover_dog,Y,2/9/18,13:48,2064
180209_5,1,6,elmo_banana,elmo_banana,elmo_carrot,control_single,target,distractor,L,elmo_banana,Y,2/9/18,13:48,2118
180209_5,1,7,grover_car,grover_car,grover_bicycle,inference,target,distractor,R,grover_bicycle,N,2/9/18,13:48,2232
180209_5,1,8,ernie_orange,ernie_apple,ernie_orange,control_single,distractor,target,R,ernie_orange,Y,2/9/18,13:48,1354
180209_5,1,9,bert_cat,bert_cat,bert_dog,control_single,target,distractor,L,bert_cat,Y,2/9/18,13:48,2800
180209_5,1,10,bert_ball,bert_ball,bert_truck,control_double,target,distractor,L,bert_ball,Y,2/9/18,13:48,1734
180209_5,1,11,bert_flower,bert_flower,bert_teddybear,control_double,target,distractor,L,bert_flower,Y,2/9/18,13:48,3153
180209_5,1,12,elmo_truck,elmo_ball,elmo_truck,control_single,distractor,target,R,elmo_truck,Y,2/9/18,13:48,2389
180209_5,1,13,bert_bicycle,bert_car,bert_bicycle,control_single,distractor,target,R,bert_bicycle,Y,2/9/18,13:48,1446
180209_5,1,14,bert_carrot,bert_banana,bert_carrot,inference,distractor,target,R,bert_carrot,Y,2/9/18,13:48,1606
180209_6,2,1,practice1_lion,practice1_cow,practice1_lion,practice,distractor,target,R,practice1_lion,Y,2/9/18,15:12,3974
180209_6,2,2,practice2_rabbit,practice2_rabbit,practice2_monkey,practice,target,distractor,L,practice2_rabbit,Y,2/9/18,15:12,2807
180209_6,2,3,grover_orange2,grover_apple2,grover_orange2,control_single,distractor,target,R,grover_orange2,Y,2/9/18,15:12,3052
180209_6,2,4,bert_dog2,bert_cat2,bert_dog2,inference,distractor,target,R,bert_dog2,Y,2/9/18,15:12,2680
180209_6,2,5,bert_car2,bert_car2,bert_bicycle2,control_double,target,distractor,L,bert_car2,Y,2/9/18,15:12,2800
180209_6,2,6,bert_teddybear2,bert_flower2,bert_teddybear2,control_single,distractor,target,R,bert_teddybear2,Y,2/9/18,15:12,1430
180209_6,2,7,grover_ball2,grover_ball2,grover_truck2,inference,target,distractor,L,grover_ball2,Y,2/9/18,15:12,1179
180209_6,2,8,elmo_cat2,elmo_dog2,elmo_cat2,control_single,distractor,target,R,elmo_cat2,Y,2/9/18,15:12,1870
180209_6,2,9,grover_car2,grover_car2,grover_bicycle2,control_single,target,distractor,L,grover_car2,Y,2/9/18,15:12,1862
180209_6,2,11,ernie_apple2,ernie_apple2,ernie_orange2,control_double,target,distractor,L,ernie_apple2,Y,2/9/18,15:12,1676
180209_6,2,10,grover_carrot2,grover_banana2,grover_carrot2,control_double,distractor,target,R,grover_carrot2,Y,2/9/18,15:12,1186
180209_6,2,12,bert_banana2,bert_banana2,bert_carrot2,control_single,target,distractor,L,bert_banana2,Y,2/9/18,15:12,1648
180209_6,2,13,bert_truck2,bert_ball2,bert_truck2,control_single,distractor,target,R,bert_truck2,Y,2/9/18,15:12,1325
180209_6,2,14,grover_flower2,grover_teddybear2,grover_flower2,inference,distractor,target,R,grover_flower2,Y,2/9/18,15:12,1169
180209_6,2,15,ernie_flower2,ernie_flower2,ernie_teddybear2,control_single,target,distractor,L,ernie_flower2,Y,2/9/18,15:12,2753
180209_6,2,16,ernie_cat2,ernie_cat2,ernie_dog2,control_double,target,distractor,L,ernie_cat2,Y,2/9/18,15:12,2216
180209_6,2,17,ernie_bicycle2,ernie_car2,ernie_bicycle2,inference,distractor,target,R,ernie_bicycle2,Y,2/9/18,15:12,1314
180209_6,2,18,elmo_apple2,elmo_apple2,elmo_orange2,control_single,target,distractor,L,elmo_apple2,Y,2/9/18,15:12,1174
180214_1,1,1,practice1_cow,practice1_cow,practice1_lion,practice,target,distractor,L,practice1_cow,Y,2/14/18,10:42,4401
180214_1,1,2,practice2_monkey,practice2_rabbit,practice2_monkey,practice,distractor,target,L,practice2_rabbit,N,2/14/18,10:42,1590
180214_1,1,3,elmo_teddybear,elmo_flower,elmo_teddybear,control_single,distractor,target,R,elmo_teddybear,Y,2/14/18,10:42,1997
180214_1,1,4,elmo_apple,elmo_apple,elmo_orange,inference,target,distractor,L,elmo_apple,Y,2/14/18,10:42,4082
180214_1,1,5,grover_dog,grover_cat,grover_dog,control_double,distractor,target,L,grover_cat,N,2/14/18,10:42,7629
180214_1,1,6,elmo_banana,elmo_banana,elmo_carrot,control_single,target,distractor,R,elmo_carrot,N,2/14/18,10:42,8338
180214_1,1,7,grover_car,grover_car,grover_bicycle,inference,target,distractor,R,grover_bicycle,N,2/14/18,10:42,6950
180214_1,1,8,ernie_orange,ernie_apple,ernie_orange,control_single,distractor,target,R,ernie_orange,Y,2/14/18,10:42,5916
180214_1,1,9,bert_cat,bert_cat,bert_dog,control_single,target,distractor,L,bert_cat,Y,2/14/18,10:42,3712
180214_1,1,10,bert_ball,bert_ball,bert_truck,control_double,target,distractor,L,bert_ball,Y,2/14/18,10:42,6295
180214_1,1,11,bert_flower,bert_flower,bert_teddybear,control_double,target,distractor,R,bert_teddybear,N,2/14/18,10:42,4292
180214_1,1,12,elmo_truck,elmo_ball,elmo_truck,control_single,distractor,target,L,elmo_ball,N,2/14/18,10:42,496
180214_1,1,13,bert_bicycle,bert_car,bert_bicycle,control_single,distractor,target,R,bert_bicycle,Y,2/14/18,10:42,6088
180214_1,1,14,bert_carrot,bert_banana,bert_carrot,inference,distractor,target,R,bert_carrot,Y,2/14/18,10:42,2290
180214_1,1,15,ernie_car,ernie_car,ernie_bicycle,control_single,target,distractor,R,ernie_bicycle,N,2/14/18,10:42,3552
180214_1,1,16,grover_orange,grover_apple,grover_orange,control_double,distractor,target,L,grover_apple,N,2/14/18,10:42,4277
180214_1,1,17,ernie_teddybear,ernie_flower,ernie_teddybear,inference,distractor,target,R,ernie_teddybear,Y,2/14/18,10:42,2824
180214_1,1,18,grover_ball,grover_ball,grover_truck,control_single,target,distractor,R,grover_truck,N,2/14/18,10:42,3390
180214_2b,1,1,practice1_cow,practice1_cow,practice1_lion,practice,target,distractor,L,practice1_cow,Y,2/14/18,11:57,1328
180214_2b,1,2,practice2_monkey,practice2_rabbit,practice2_monkey,practice,distractor,target,R,practice2_monkey,Y,2/14/18,11:57,1283
180214_2b,1,3,elmo_teddybear,elmo_flower,elmo_teddybear,control_single,distractor,target,R,elmo_teddybear,Y,2/14/18,11:57,3079
180214_2b,1,4,elmo_apple,elmo_apple,elmo_orange,inference,target,distractor,L,elmo_apple,Y,2/14/18,11:57,3145
180214_2b,1,5,grover_dog,grover_cat,grover_dog,control_double,distractor,target,L,grover_cat,N,2/14/18,11:57,5424
180214_2b,1,6,elmo_banana,elmo_banana,elmo_carrot,control_single,target,distractor,L,elmo_banana,Y,2/14/18,11:57,3745
180214_2b,1,7,grover_car,grover_car,grover_bicycle,inference,target,distractor,L,grover_car,Y,2/14/18,11:57,3260
180214_2b,1,8,ernie_orange,ernie_apple,ernie_orange,control_single,distractor,target,R,ernie_orange,Y,2/14/18,11:57,2957
180214_2b,1,9,bert_cat,bert_cat,bert_dog,control_single,target,distractor,L,bert_cat,Y,2/14/18,11:57,3365
180214_2b,1,10,bert_ball,bert_ball,bert_truck,control_double,target,distractor,L,bert_ball,Y,2/14/18,11:57,2534
180214_2b,1,11,bert_flower,bert_flower,bert_teddybear,control_double,target,distractor,L,bert_flower,Y,2/14/18,11:57,2363
180214_2b,1,12,elmo_truck,elmo_ball,elmo_truck,control_single,distractor,target,R,elmo_truck,Y,2/14/18,11:57,2255
180214_2b,1,13,bert_bicycle,bert_car,bert_bicycle,control_single,distractor,target,R,bert_bicycle,Y,2/14/18,11:57,2460
180214_2b,1,14,bert_carrot,bert_banana,bert_carrot,inference,distractor,target,R,bert_carrot,Y,2/14/18,11:57,2334
180214_2b,1,15,ernie_car,ernie_car,ernie_bicycle,control_single,target,distractor,L,ernie_car,Y,2/14/18,11:57,2204
180214_2b,1,16,grover_orange,grover_apple,grover_orange,control_double,distractor,target,R,grover_orange,Y,2/14/18,11:57,1722
180214_2b,1,17,ernie_teddybear,ernie_flower,ernie_teddybear,inference,distractor,target,R,ernie_teddybear,Y,2/14/18,11:57,3232
180214_2b,1,18,grover_ball,grover_ball,grover_truck,control_single,target,distractor,L,grover_ball,Y,2/14/18,11:57,3066
180214_3,1,1,practice1_cow,practice1_cow,practice1_lion,practice,target,distractor,L,practice1_cow,Y,2/14/18,12:58,4961
180214_3,1,2,practice2_monkey,practice2_rabbit,practice2_monkey,practice,distractor,target,R,practice2_monkey,Y,2/14/18,12:58,2130
180214_3,1,3,elmo_teddybear,elmo_flower,elmo_teddybear,control_single,distractor,target,R,elmo_teddybear,Y,2/14/18,12:58,3092
180214_3,1,4,elmo_apple,elmo_apple,elmo_orange,inference,target,distractor,L,elmo_apple,Y,2/14/18,12:58,2133
180214_3,1,5,grover_dog,grover_cat,grover_dog,control_double,distractor,target,R,grover_dog,Y,2/14/18,12:58,5368
180214_3,1,6,elmo_banana,elmo_banana,elmo_carrot,control_single,target,distractor,L,elmo_banana,Y,2/14/18,12:58,2723
180214_3,1,7,grover_car,grover_car,grover_bicycle,inference,target,distractor,L,grover_car,Y,2/14/18,12:58,2313
180214_3,1,8,ernie_orange,ernie_apple,ernie_orange,control_single,distractor,target,R,ernie_orange,Y,2/14/18,12:58,1803
180214_3,1,9,bert_cat,bert_cat,bert_dog,control_single,target,distractor,L,bert_cat,Y,2/14/18,12:58,4537
180214_3,1,10,bert_ball,bert_ball,bert_truck,control_double,target,distractor,L,bert_ball,Y,2/14/18,12:58,3811
180214_3,1,11,bert_flower,bert_flower,bert_teddybear,control_double,target,distractor,L,bert_flower,Y,2/14/18,12:58,2777
180214_3,1,12,elmo_truck,elmo_ball,elmo_truck,control_single,distractor,target,R,elmo_truck,Y,2/14/18,12:58,2278
180214_3,1,13,bert_bicycle,bert_car,bert_bicycle,control_single,distractor,target,R,bert_bicycle,Y,2/14/18,12:58,1760
180214_3,1,14,bert_carrot,bert_banana,bert_carrot,inference,distractor,target,R,bert_carrot,Y,2/14/18,12:58,2023
180214_3,1,15,ernie_car,ernie_car,ernie_bicycle,control_single,target,distractor,R,ernie_bicycle,N,2/14/18,12:58,4541
180214_3,1,16,grover_orange,grover_apple,grover_orange,control_double,distractor,target,R,grover_orange,Y,2/14/18,12:58,1915
180214_3,1,17,ernie_teddybear,ernie_flower,ernie_teddybear,inference,distractor,target,R,ernie_teddybear,Y,2/14/18,12:58,642
180214_3,1,18,grover_ball,grover_ball,grover_truck,control_single,target,distractor,L,grover_ball,Y,2/14/18,12:58,3738
180214_4,2,1,practice1_lion,practice1_cow,practice1_lion,practice,distractor,target,R,practice1_lion,Y,2/14/18,13:22,3017
180214_4,2,2,practice2_rabbit,practice2_rabbit,practice2_monkey,practice,target,distractor,L,practice2_rabbit,Y,2/14/18,13:22,631
180214_4,2,3,grover_orange2,grover_apple2,grover_orange2,control_single,distractor,target,R,grover_orange2,Y,2/14/18,13:22,326
180214_4,2,4,bert_dog2,bert_cat2,bert_dog2,inference,distractor,target,R,bert_dog2,Y,2/14/18,13:22,568
180214_4,2,5,bert_car2,bert_car2,bert_bicycle2,control_double,target,distractor,L,bert_car2,Y,2/14/18,13:22,4420
180214_4,2,6,bert_teddybear2,bert_flower2,bert_teddybear2,control_single,distractor,target,R,bert_teddybear2,Y,2/14/18,13:22,3604
180214_4,2,7,grover_ball2,grover_ball2,grover_truck2,inference,target,distractor,R,grover_truck2,N,2/14/18,13:22,6959
180214_4,2,8,elmo_cat2,elmo_dog2,elmo_cat2,control_single,distractor,target,R,elmo_cat2,Y,2/14/18,13:22,3359
180214_4,2,9,grover_car2,grover_car2,grover_bicycle2,control_single,target,distractor,L,grover_car2,Y,2/14/18,13:22,2791
180214_4,2,10,grover_carrot2,grover_banana2,grover_carrot2,control_double,distractor,target,R,grover_carrot2,Y,2/14/18,13:22,5274
180214_4,2,11,ernie_apple2,ernie_apple2,ernie_orange2,control_double,target,distractor,L,ernie_apple2,Y,2/14/18,13:22,4693
180214_4,2,12,bert_banana2,bert_banana2,bert_carrot2,control_single,target,distractor,L,bert_banana2,Y,2/14/18,13:22,5462
180214_4,2,13,bert_truck2,bert_ball2,bert_truck2,control_single,distractor,target,L,bert_ball2,N,2/14/18,13:22,7559
180214_4,2,14,grover_flower2,grover_teddybear2,grover_flower2,inference,distractor,target,R,grover_flower2,Y,2/14/18,13:22,3285
180214_4,2,15,ernie_flower2,ernie_flower2,ernie_teddybear2,control_single,target,distractor,R,ernie_teddybear2,N,2/14/18,13:22,5505
180214_4,2,16,ernie_cat2,ernie_cat2,ernie_dog2,control_double,target,distractor,R,ernie_dog2,N,2/14/18,13:22,3619
180214_4,2,17,ernie_bicycle2,ernie_car2,ernie_bicycle2,inference,distractor,target,L,ernie_car2,N,2/14/18,13:22,4782
180214_4,2,18,elmo_apple2,elmo_apple2,elmo_orange2,control_single,target,distractor,L,elmo_apple2,Y,2/14/18,13:22,1926
180214_5,1,1,practice1_cow,practice1_cow,practice1_lion,practice,target,distractor,L,practice1_cow,Y,2/14/18,15:08,6485
180214_5,1,2,practice2_monkey,practice2_rabbit,practice2_monkey,practice,distractor,target,R,practice2_monkey,Y,2/14/18,15:08,5195
180214_5,1,3,elmo_teddybear,elmo_flower,elmo_teddybear,control_single,distractor,target,R,elmo_teddybear,Y,2/14/18,15:08,6704
180214_5,1,4,elmo_apple,elmo_apple,elmo_orange,inference,target,distractor,L,elmo_apple,Y,2/14/18,15:08,3832
180214_5,1,5,grover_dog,grover_cat,grover_dog,control_double,distractor,target,R,grover_dog,Y,2/14/18,15:08,4077
180214_5,1,6,elmo_banana,elmo_banana,elmo_carrot,control_single,target,distractor,L,elmo_banana,Y,2/14/18,15:08,3933
180214_5,1,7,grover_car,grover_car,grover_bicycle,inference,target,distractor,L,grover_car,Y,2/14/18,15:08,2584
180214_5,1,8,ernie_orange,ernie_apple,ernie_orange,control_single,distractor,target,R,ernie_orange,Y,2/14/18,15:08,4174
180214_5,1,9,bert_cat,bert_cat,bert_dog,control_single,target,distractor,L,bert_cat,Y,2/14/18,15:08,2703
180214_5,1,10,bert_ball,bert_ball,bert_truck,control_double,target,distractor,L,bert_ball,Y,2/14/18,15:08,3432
180214_5,1,11,bert_flower,bert_flower,bert_teddybear,control_double,target,distractor,R,bert_teddybear,N,2/14/18,15:08,1856
180214_5,1,12,elmo_truck,elmo_ball,elmo_truck,control_single,distractor,target,R,elmo_truck,Y,2/14/18,15:08,4612
180214_5,1,13,bert_bicycle,bert_car,bert_bicycle,control_single,distractor,target,R,bert_bicycle,Y,2/14/18,15:08,4202
180214_5,1,14,bert_carrot,bert_banana,bert_carrot,inference,distractor,target,R,bert_carrot,Y,2/14/18,15:08,5824
180214_5,1,15,ernie_car,ernie_car,ernie_bicycle,control_single,target,distractor,L,ernie_car,Y,2/14/18,15:08,3834
180214_5,1,16,grover_orange,grover_apple,grover_orange,control_double,distractor,target,R,grover_orange,Y,2/14/18,15:08,4043
180214_5,1,17,ernie_teddybear,ernie_flower,ernie_teddybear,inference,distractor,target,R,ernie_teddybear,Y,2/14/18,15:08,4775
180214_5,1,18,grover_ball,grover_ball,grover_truck,control_single,target,distractor,L,grover_ball,Y,2/14/18,15:08,5257
180215_1,1,1,practice1_cow,practice1_cow,practice1_lion,practice,target,distractor,L,practice1_cow,Y,2/15/18,10:14,4384
180215_1,1,2,practice2_monkey,practice2_rabbit,practice2_monkey,practice,distractor,target,R,practice2_monkey,Y,2/15/18,10:14,2620
180215_1,1,3,elmo_teddybear,elmo_flower,elmo_teddybear,control_single,distractor,target,R,elmo_teddybear,Y,2/15/18,10:14,2052
180215_1,1,4,elmo_apple,elmo_apple,elmo_orange,inference,target,distractor,L,elmo_apple,Y,2/15/18,10:14,4833
180215_1,1,5,grover_dog,grover_cat,grover_dog,control_double,distractor,target,R,grover_dog,Y,2/15/18,10:14,3824
180215_1,1,6,elmo_banana,elmo_banana,elmo_carrot,control_single,target,distractor,L,elmo_banana,Y,2/15/18,10:14,1893
180215_1,1,7,grover_car,grover_car,grover_bicycle,inference,target,distractor,R,grover_bicycle,N,2/15/18,10:14,3754
180215_1,1,8,ernie_orange,ernie_apple,ernie_orange,control_single,distractor,target,R,ernie_orange,Y,2/15/18,10:14,1641
180215_1,1,9,bert_cat,bert_cat,bert_dog,control_single,target,distractor,L,bert_cat,Y,2/15/18,10:14,2530
180215_1,1,10,bert_ball,bert_ball,bert_truck,control_double,target,distractor,L,bert_ball,Y,2/15/18,10:14,2274
180215_1,1,11,bert_flower,bert_flower,bert_teddybear,control_double,target,distractor,L,bert_flower,Y,2/15/18,10:14,1572
180215_1,1,12,elmo_truck,elmo_ball,elmo_truck,control_single,distractor,target,R,elmo_truck,Y,2/15/18,10:14,1607
180215_1,1,13,bert_bicycle,bert_car,bert_bicycle,control_single,distractor,target,R,bert_bicycle,Y,2/15/18,10:14,1897
180215_1,1,14,bert_carrot,bert_banana,bert_carrot,inference,distractor,target,R,bert_carrot,Y,2/15/18,10:14,1538
180215_1,1,15,ernie_car,ernie_car,ernie_bicycle,control_single,target,distractor,L,ernie_car,Y,2/15/18,10:14,2358
180215_1,1,16,grover_orange,grover_apple,grover_orange,control_double,distractor,target,R,grover_orange,Y,2/15/18,10:14,1964
180215_1,1,17,ernie_teddybear,ernie_flower,ernie_teddybear,inference,distractor,target,R,ernie_teddybear,Y,2/15/18,10:14,1664
180215_1,1,18,grover_ball,grover_ball,grover_truck,control_single,target,distractor,L,grover_ball,Y,2/15/18,10:14,1875
180215_2,2,1,practice1_lion,practice1_cow,practice1_lion,practice,distractor,target,R,practice1_lion,Y,2/15/18,12:03,4243
180215_2,2,2,practice2_rabbit,practice2_rabbit,practice2_monkey,practice,target,distractor,L,practice2_rabbit,Y,2/15/18,12:03,5724
180215_2,2,3,grover_orange2,grover_apple2,grover_orange2,control_single,distractor,target,R,grover_orange2,Y,2/15/18,12:03,2724
180215_2,2,4,bert_dog2,bert_cat2,bert_dog2,inference,distractor,target,R,bert_dog2,Y,2/15/18,12:03,4506
180215_2,2,5,bert_car2,bert_car2,bert_bicycle2,control_double,target,distractor,L,bert_car2,Y,2/15/18,12:03,2812
180215_2,2,6,bert_teddybear2,bert_flower2,bert_teddybear2,control_single,distractor,target,R,bert_teddybear2,Y,2/15/18,12:03,2119
180215_2,2,7,grover_ball2,grover_ball2,grover_truck2,inference,target,distractor,L,grover_ball2,Y,2/15/18,12:03,1316
180215_2,2,8,elmo_cat2,elmo_dog2,elmo_cat2,control_single,distractor,target,R,elmo_cat2,Y,2/15/18,12:03,1310
180215_2,2,9,grover_car2,grover_car2,grover_bicycle2,control_single,target,distractor,L,grover_car2,Y,2/15/18,12:03,2113
180215_2,2,10,grover_carrot2,grover_banana2,grover_carrot2,control_double,distractor,target,R,grover_carrot2,Y,2/15/18,12:03,2174
180215_2,2,11,ernie_apple2,ernie_apple2,ernie_orange2,control_double,target,distractor,L,ernie_apple2,Y,2/15/18,12:03,3559
180215_2,2,12,bert_banana2,bert_banana2,bert_carrot2,control_single,target,distractor,L,bert_banana2,Y,2/15/18,12:03,2008
180215_2,2,13,bert_truck2,bert_ball2,bert_truck2,control_single,distractor,target,R,bert_truck2,Y,2/15/18,12:03,5064
180215_2,2,14,grover_flower2,grover_teddybear2,grover_flower2,inference,distractor,target,R,grover_flower2,Y,2/15/18,12:03,2100
180215_2,2,15,ernie_flower2,ernie_flower2,ernie_teddybear2,control_single,target,distractor,L,ernie_flower2,Y,2/15/18,12:03,1802
180215_2,2,16,ernie_cat2,ernie_cat2,ernie_dog2,control_double,target,distractor,L,ernie_cat2,Y,2/15/18,12:03,1921
180215_2,2,17,ernie_bicycle2,ernie_car2,ernie_bicycle2,inference,distractor,target,L,ernie_car2,N,2/15/18,12:03,2560
180215_2,2,18,elmo_apple2,elmo_apple2,elmo_orange2,control_single,target,distractor,L,elmo_apple2,Y,2/15/18,12:03,1878
180215_3,1,1,practice1_cow,practice1_cow,practice1_lion,practice,target,distractor,L,practice1_cow,Y,2/15/18,12:09,2764
180215_3,1,2,practice2_monkey,practice2_rabbit,practice2_monkey,practice,distractor,target,R,practice2_monkey,Y,2/15/18,12:09,1641
180215_3,1,3,elmo_teddybear,elmo_flower,elmo_teddybear,control_single,distractor,target,R,elmo_teddybear,Y,2/15/18,12:09,8263
180215_3,1,4,elmo_apple,elmo_apple,elmo_orange,inference,target,distractor,L,elmo_apple,Y,2/15/18,12:09,2215
180215_3,1,5,grover_dog,grover_cat,grover_dog,control_double,distractor,target,R,grover_dog,Y,2/15/18,12:09,3270
180215_3,1,6,elmo_banana,elmo_banana,elmo_carrot,control_single,target,distractor,L,elmo_banana,Y,2/15/18,12:09,2450
180215_3,1,7,grover_car,grover_car,grover_bicycle,inference,target,distractor,L,grover_car,Y,2/15/18,12:09,10376
180215_3,1,8,ernie_orange,ernie_apple,ernie_orange,control_single,distractor,target,R,ernie_orange,Y,2/15/18,12:09,3110
180215_3,1,9,bert_cat,bert_cat,bert_dog,control_single,target,distractor,L,bert_cat,Y,2/15/18,12:09,2369
180215_3,1,10,bert_ball,bert_ball,bert_truck,control_double,target,distractor,L,bert_ball,Y,2/15/18,12:09,2024
180215_3,1,11,bert_flower,bert_flower,bert_teddybear,control_double,target,distractor,L,bert_flower,Y,2/15/18,12:09,2565
180215_3,1,12,elmo_truck,elmo_ball,elmo_truck,control_single,distractor,target,R,elmo_truck,Y,2/15/18,12:09,2124
180215_3,1,13,bert_bicycle,bert_car,bert_bicycle,control_single,distractor,target,R,bert_bicycle,Y,2/15/18,12:09,1925
180215_3,1,14,bert_carrot,bert_banana,bert_carrot,inference,distractor,target,R,bert_carrot,Y,2/15/18,12:09,2520
180215_3,1,15,ernie_car,ernie_car,ernie_bicycle,control_single,target,distractor,L,ernie_car,Y,2/15/18,12:09,5967
180215_3,1,16,grover_orange,grover_apple,grover_orange,control_double,distractor,target,R,grover_orange,Y,2/15/18,12:09,1560
180215_3,1,17,ernie_teddybear,ernie_flower,ernie_teddybear,inference,distractor,target,R,ernie_teddybear,Y,2/15/18,12:09,1942
180215_3,1,18,grover_ball,grover_ball,grover_truck,control_single,target,distractor,L,grover_ball,Y,2/15/18,12:09,4630
180215_4,1,1,practice1_cow,practice1_cow,practice1_lion,practice,target,distractor,R,practice1_lion,N,2/15/18,13:54,4239
180215_4,1,2,practice2_monkey,practice2_rabbit,practice2_monkey,practice,distractor,target,R,practice2_monkey,Y,2/15/18,13:54,3011
180215_4,1,3,elmo_teddybear,elmo_flower,elmo_teddybear,control_single,distractor,target,R,elmo_teddybear,Y,2/15/18,13:54,1732
180215_4,1,4,elmo_apple,elmo_apple,elmo_orange,inference,target,distractor,R,elmo_orange,N,2/15/18,13:54,3132
180215_4,1,5,grover_dog,grover_cat,grover_dog,control_double,distractor,target,R,grover_dog,Y,2/15/18,13:54,3041
180215_4,1,6,elmo_banana,elmo_banana,elmo_carrot,control_single,target,distractor,L,elmo_banana,Y,2/15/18,13:54,2254
180215_4,1,7,grover_car,grover_car,grover_bicycle,inference,target,distractor,R,grover_bicycle,N,2/15/18,13:54,2236
180215_4,1,8,ernie_orange,ernie_apple,ernie_orange,control_single,distractor,target,R,ernie_orange,Y,2/15/18,13:54,2750
180215_4,1,9,bert_cat,bert_cat,bert_dog,control_single,target,distractor,L,bert_cat,Y,2/15/18,13:54,1796
180215_4,1,10,bert_ball,bert_ball,bert_truck,control_double,target,distractor,L,bert_ball,Y,2/15/18,13:54,1889
180215_4,1,11,bert_flower,bert_flower,bert_teddybear,control_double,target,distractor,L,bert_flower,Y,2/15/18,13:54,2853
180215_4,1,12,elmo_truck,elmo_ball,elmo_truck,control_single,distractor,target,R,elmo_truck,Y,2/15/18,13:54,5108
180215_4,1,13,bert_bicycle,bert_car,bert_bicycle,control_single,distractor,target,R,bert_bicycle,Y,2/15/18,13:54,1765
180215_4,1,14,bert_carrot,bert_banana,bert_carrot,inference,distractor,target,L,bert_banana,N,2/15/18,13:54,4172
180215_4,1,15,ernie_car,ernie_car,ernie_bicycle,control_single,target,distractor,L,ernie_car,Y,2/15/18,13:54,15003
180215_4,1,16,grover_orange,grover_apple,grover_orange,control_double,distractor,target,R,grover_orange,Y,2/15/18,13:54,2378
180215_4,1,17,ernie_teddybear,ernie_flower,ernie_teddybear,inference,distractor,target,R,ernie_teddybear,Y,2/15/18,13:54,2807
180215_4,1,18,grover_ball,grover_ball,grover_truck,control_single,target,distractor,L,grover_ball,Y,2/15/18,13:54,2270
180216_1,1,1,practice1_cow,practice1_cow,practice1_lion,practice,target,distractor,L,practice1_cow,Y,2/16/18,11:04,2360
180216_1,1,2,practice2_monkey,practice2_rabbit,practice2_monkey,practice,distractor,target,R,practice2_monkey,Y,2/16/18,11:04,1268
180216_1,1,3,elmo_teddybear,elmo_flower,elmo_teddybear,control_single,distractor,target,R,elmo_teddybear,Y,2/16/18,11:04,1690
180216_1,1,4,elmo_apple,elmo_apple,elmo_orange,inference,target,distractor,L,elmo_apple,Y,2/16/18,11:04,750
180216_1,1,5,grover_dog,grover_cat,grover_dog,control_double,distractor,target,R,grover_dog,Y,2/16/18,11:04,1622
180216_1,1,6,elmo_banana,elmo_banana,elmo_carrot,control_single,target,distractor,L,elmo_banana,Y,2/16/18,11:04,834
180216_1,1,7,grover_car,grover_car,grover_bicycle,inference,target,distractor,L,grover_car,Y,2/16/18,11:04,1922
180216_1,1,8,ernie_orange,ernie_apple,ernie_orange,control_single,distractor,target,R,ernie_orange,Y,2/16/18,11:04,1251
180216_1,1,9,bert_cat,bert_cat,bert_dog,control_single,target,distractor,L,bert_cat,Y,2/16/18,11:04,2081
180216_1,1,10,bert_ball,bert_ball,bert_truck,control_double,target,distractor,L,bert_ball,Y,2/16/18,11:04,3041
180216_1,1,11,bert_flower,bert_flower,bert_teddybear,control_double,target,distractor,L,bert_flower,Y,2/16/18,11:04,1910
180216_1,1,12,elmo_truck,elmo_ball,elmo_truck,control_single,distractor,target,R,elmo_truck,Y,2/16/18,11:04,4908
180216_1,1,13,bert_bicycle,bert_car,bert_bicycle,control_single,distractor,target,R,bert_bicycle,Y,2/16/18,11:04,3197
180216_1,1,14,bert_carrot,bert_banana,bert_carrot,inference,distractor,target,R,bert_carrot,Y,2/16/18,11:04,3387
180216_1,1,15,ernie_car,ernie_car,ernie_bicycle,control_single,target,distractor,L,ernie_car,Y,2/16/18,11:04,3425
180216_1,1,16,grover_orange,grover_apple,grover_orange,control_double,distractor,target,R,grover_orange,Y,2/16/18,11:04,5657
180216_1,1,17,ernie_teddybear,ernie_flower,ernie_teddybear,inference,distractor,target,R,ernie_teddybear,Y,2/16/18,11:04,1482
180216_1,1,18,grover_ball,grover_ball,grover_truck,control_single,target,distractor,L,grover_ball,Y,2/16/18,11:04,2049
180216_2,2,1,practice1_lion,practice1_cow,practice1_lion,practice,distractor,target,R,practice1_lion,Y,2/16/18,11:10,1469
180216_2,2,2,practice2_rabbit,practice2_rabbit,practice2_monkey,practice,target,distractor,L,practice2_rabbit,Y,2/16/18,11:10,1675
180216_2,2,3,grover_orange2,grover_apple2,grover_orange2,control_single,distractor,target,R,grover_orange2,Y,2/16/18,11:10,5167
180216_2,2,4,bert_dog2,bert_cat2,bert_dog2,inference,distractor,target,R,bert_dog2,Y,2/16/18,11:10,2677
180216_2,2,5,bert_car2,bert_car2,bert_bicycle2,control_double,target,distractor,L,bert_car2,Y,2/16/18,11:10,1855
180216_2,2,6,bert_teddybear2,bert_flower2,bert_teddybear2,control_single,distractor,target,R,bert_teddybear2,Y,2/16/18,11:10,1583
180216_2,2,7,grover_ball2,grover_ball2,grover_truck2,inference,target,distractor,L,grover_ball2,Y,2/16/18,11:10,1997
180216_2,2,8,elmo_cat2,elmo_dog2,elmo_cat2,control_single,distractor,target,R,elmo_cat2,Y,2/16/18,11:10,1982
180216_2,2,9,grover_car2,grover_car2,grover_bicycle2,control_single,target,distractor,L,grover_car2,Y,2/16/18,11:10,2043
180216_2,2,10,grover_carrot2,grover_banana2,grover_carrot2,control_double,distractor,target,R,grover_carrot2,Y,2/16/18,11:10,1944
180216_2,2,11,ernie_apple2,ernie_apple2,ernie_orange2,control_double,target,distractor,L,ernie_apple2,Y,2/16/18,11:10,2295
180216_2,2,12,bert_banana2,bert_banana2,bert_carrot2,control_single,target,distractor,L,bert_banana2,Y,2/16/18,11:10,1989
180216_2,2,13,bert_truck2,bert_ball2,bert_truck2,control_single,distractor,target,R,bert_truck2,Y,2/16/18,11:10,1467
180216_2,2,14,grover_flower2,grover_teddybear2,grover_flower2,inference,distractor,target,R,grover_flower2,Y,2/16/18,11:10,1451
180216_2,2,15,ernie_flower2,ernie_flower2,ernie_teddybear2,control_single,target,distractor,L,ernie_flower2,Y,2/16/18,11:10,2087
180216_2,2,16,ernie_cat2,ernie_cat2,ernie_dog2,control_double,target,distractor,L,ernie_cat2,Y,2/16/18,11:10,1567
180216_2,2,17,ernie_bicycle2,ernie_car2,ernie_bicycle2,inference,distractor,target,R,ernie_bicycle2,Y,2/16/18,11:10,2060
180216_2,2,18,elmo_apple2,elmo_apple2,elmo_orange2,control_single,target,distractor,L,elmo_apple2,Y,2/16/18,11:10,1672
180216_3,1,1,practice1_cow,practice1_cow,practice1_lion,practice,target,distractor,L,practice1_cow,Y,2/16/18,13:40,2523
180216_3,1,2,practice2_monkey,practice2_rabbit,practice2_monkey,practice,distractor,target,R,practice2_monkey,Y,2/16/18,13:40,2650
180216_3,1,3,elmo_teddybear,elmo_flower,elmo_teddybear,control_single,distractor,target,R,elmo_teddybear,Y,2/16/18,13:40,2394
180216_3,1,4,elmo_apple,elmo_apple,elmo_orange,inference,target,distractor,R,elmo_orange,N,2/16/18,13:40,4588
180216_3,1,5,grover_dog,grover_cat,grover_dog,control_double,distractor,target,R,grover_dog,Y,2/16/18,13:40,5236
180216_3,1,6,elmo_banana,elmo_banana,elmo_carrot,control_single,target,distractor,L,elmo_banana,Y,2/16/18,13:40,3086
180216_3,1,7,grover_car,grover_car,grover_bicycle,inference,target,distractor,L,grover_car,Y,2/16/18,13:40,5524
180216_3,1,8,ernie_orange,ernie_apple,ernie_orange,control_single,distractor,target,R,ernie_orange,Y,2/16/18,13:40,3066
180216_3,1,9,bert_cat,bert_cat,bert_dog,control_single,target,distractor,R,bert_dog,N,2/16/18,13:40,6626
180216_3,1,10,bert_ball,bert_ball,bert_truck,control_double,target,distractor,R,bert_truck,N,2/16/18,13:40,5872
180216_3,1,11,bert_flower,bert_flower,bert_teddybear,control_double,target,distractor,L,bert_flower,Y,2/16/18,13:40,4108
180216_3,1,12,elmo_truck,elmo_ball,elmo_truck,control_single,distractor,target,L,elmo_ball,N,2/16/18,13:40,7442
180216_3,1,13,bert_bicycle,bert_car,bert_bicycle,control_single,distractor,target,R,bert_bicycle,Y,2/16/18,13:40,3042
180216_3,1,14,bert_carrot,bert_banana,bert_carrot,inference,distractor,target,R,bert_carrot,Y,2/16/18,13:40,2140
180216_3,1,15,ernie_car,ernie_car,ernie_bicycle,control_single,target,distractor,R,ernie_bicycle,N,2/16/18,13:40,7500
180216_3,1,16,grover_orange,grover_apple,grover_orange,control_double,distractor,target,R,grover_orange,Y,2/16/18,13:40,1862
180216_4,1,1,practice1_cow,practice1_cow,practice1_lion,practice,target,distractor,R,practice1_lion,N,2/16/18,14:05,534
180216_4,1,2,practice2_monkey,practice2_rabbit,practice2_monkey,practice,distractor,target,L,practice2_rabbit,N,2/16/18,14:05,3718
180216_4,1,3,elmo_teddybear,elmo_flower,elmo_teddybear,control_single,distractor,target,R,elmo_teddybear,Y,2/16/18,14:05,816
180216_4,1,4,elmo_apple,elmo_apple,elmo_orange,inference,target,distractor,R,elmo_orange,N,2/16/18,14:05,3893
180216_4,1,5,grover_dog,grover_cat,grover_dog,control_double,distractor,target,R,grover_dog,Y,2/16/18,14:05,7550
180216_4,1,6,elmo_banana,elmo_banana,elmo_carrot,control_single,target,distractor,L,elmo_banana,Y,2/16/18,14:05,9276
180216_4,1,7,grover_car,grover_car,grover_bicycle,inference,target,distractor,L,grover_car,Y,2/16/18,14:05,6713
180216_4,1,8,ernie_orange,ernie_apple,ernie_orange,control_single,distractor,target,L,ernie_apple,N,2/16/18,14:05,502
180216_4,1,9,bert_cat,bert_cat,bert_dog,control_single,target,distractor,R,bert_dog,N,2/16/18,14:05,12445
180216_4,1,10,bert_ball,bert_ball,bert_truck,control_double,target,distractor,L,bert_ball,Y,2/16/18,14:05,6949
180216_4,1,11,bert_flower,bert_flower,bert_teddybear,control_double,target,distractor,L,bert_flower,Y,2/16/18,14:05,4313
180216_4,1,12,elmo_truck,elmo_ball,elmo_truck,control_single,distractor,target,R,elmo_truck,Y,2/16/18,14:05,5355
180216_4,1,13,bert_bicycle,bert_car,bert_bicycle,control_single,distractor,target,R,bert_bicycle,Y,2/16/18,14:05,3901
180216_4,1,14,bert_carrot,bert_banana,bert_carrot,inference,distractor,target,R,bert_carrot,Y,2/16/18,14:05,20243
180216_4,1,15,ernie_car,ernie_car,ernie_bicycle,control_single,target,distractor,R,ernie_bicycle,N,2/16/18,14:05,29633
180216_4,1,16,grover_orange,grover_apple,grover_orange,control_double,distractor,target,L,grover_apple,N,2/16/18,14:05,6461
180216_4,1,17,ernie_teddybear,ernie_flower,ernie_teddybear,inference,distractor,target,R,ernie_teddybear,Y,2/16/18,14:05,6991
180216_4,1,18,grover_ball,grover_ball,grover_truck,control_single,target,distractor,R,grover_truck,N,2/16/18,14:05,1209
180216_5dryrun,2,1,practice1_lion,practice1_cow,practice1_lion,practice,distractor,target,R,practice1_lion,Y,2/16/18,14:59,2101
180216_5dryrun,2,2,practice2_rabbit,practice2_rabbit,practice2_monkey,practice,target,distractor,L,practice2_rabbit,Y,2/16/18,14:59,1664
180216_5dryrun,2,3,grover_orange2,grover_apple2,grover_orange2,control_single,distractor,target,R,grover_orange2,Y,2/16/18,14:59,3120
180216_5dryrun,2,4,bert_dog2,bert_cat2,bert_dog2,inference,distractor,target,R,bert_dog2,Y,2/16/18,14:59,1622
180216_5dryrun,2,5,bert_car2,bert_car2,bert_bicycle2,control_double,target,distractor,L,bert_car2,Y,2/16/18,14:59,2339
180216_5dryrun,2,6,bert_teddybear2,bert_flower2,bert_teddybear2,control_single,distractor,target,R,bert_teddybear2,Y,2/16/18,14:59,1837
180216_5dryrun,2,7,grover_ball2,grover_ball2,grover_truck2,inference,target,distractor,L,grover_ball2,Y,2/16/18,14:59,1388
180216_5dryrun,2,8,elmo_cat2,elmo_dog2,elmo_cat2,control_single,distractor,target,R,elmo_cat2,Y,2/16/18,14:59,2592
180216_5dryrun,2,9,grover_car2,grover_car2,grover_bicycle2,control_single,target,distractor,L,grover_car2,Y,2/16/18,14:59,1921
180216_5dryrun,2,10,grover_carrot2,grover_banana2,grover_carrot2,control_double,distractor,target,R,grover_carrot2,Y,2/16/18,14:59,1313
180216_5dryrun,2,11,ernie_apple2,ernie_apple2,ernie_orange2,control_double,target,distractor,L,ernie_apple2,Y,2/16/18,14:59,1343
180216_5dryrun,2,12,bert_banana2,bert_banana2,bert_carrot2,control_single,target,distractor,L,bert_banana2,Y,2/16/18,14:59,1511
180216_5dryrun,2,13,bert_truck2,bert_ball2,bert_truck2,control_single,distractor,target,R,bert_truck2,Y,2/16/18,14:59,1374
180216_5dryrun,2,14,grover_flower2,grover_teddybear2,grover_flower2,inference,distractor,target,R,grover_flower2,Y,2/16/18,14:59,1267
180216_5dryrun,2,15,ernie_flower2,ernie_flower2,ernie_teddybear2,control_single,target,distractor,L,ernie_flower2,Y,2/16/18,14:59,1539
180216_5dryrun,2,16,ernie_cat2,ernie_cat2,ernie_dog2,control_double,target,distractor,L,ernie_cat2,Y,2/16/18,14:59,1085
180216_5dryrun,2,17,ernie_bicycle2,ernie_car2,ernie_bicycle2,inference,distractor,target,R,ernie_bicycle2,Y,2/16/18,14:59,1095
180216_5dryrun,2,18,elmo_apple2,elmo_apple2,elmo_orange2,control_single,target,distractor,L,elmo_apple2,Y,2/16/18,14:59,1362
180221_1,1,1,practice1_cow,practice1_cow,practice1_lion,practice,target,distractor,L,practice1_cow,Y,2/21/18,11:05,3799
180221_1,1,2,practice2_monkey,practice2_rabbit,practice2_monkey,practice,distractor,target,R,practice2_monkey,Y,2/21/18,11:05,2395
180221_1,1,3,elmo_teddybear,elmo_flower,elmo_teddybear,control_single,distractor,target,R,elmo_teddybear,Y,2/21/18,11:05,2909
180221_1,1,4,elmo_apple,elmo_apple,elmo_orange,inference,target,distractor,L,elmo_apple,Y,2/21/18,11:05,4853
180221_1,1,5,grover_dog,grover_cat,grover_dog,control_double,distractor,target,R,grover_dog,Y,2/21/18,11:05,5160
180221_1,1,6,elmo_banana,elmo_banana,elmo_carrot,control_single,target,distractor,L,elmo_banana,Y,2/21/18,11:05,3205
180221_1,1,7,grover_car,grover_car,grover_bicycle,inference,target,distractor,L,grover_car,Y,2/21/18,11:05,4151
180221_1,1,8,ernie_orange,ernie_apple,ernie_orange,control_single,distractor,target,R,ernie_orange,Y,2/21/18,11:05,2367
180221_1,1,9,bert_cat,bert_cat,bert_dog,control_single,target,distractor,L,bert_cat,Y,2/21/18,11:05,2531
180221_1,1,10,bert_ball,bert_ball,bert_truck,control_double,target,distractor,L,bert_ball,Y,2/21/18,11:05,2560
180221_1,1,11,bert_flower,bert_flower,bert_teddybear,control_double,target,distractor,L,bert_flower,Y,2/21/18,11:05,2624
180221_1,1,12,elmo_truck,elmo_ball,elmo_truck,control_single,distractor,target,R,elmo_truck,Y,2/21/18,11:05,2387
180221_1,1,13,bert_bicycle,bert_car,bert_bicycle,control_single,distractor,target,R,bert_bicycle,Y,2/21/18,11:05,2293
180221_1,1,14,bert_carrot,bert_banana,bert_carrot,inference,distractor,target,R,bert_carrot,Y,2/21/18,11:05,3735
180221_1,1,15,ernie_car,ernie_car,ernie_bicycle,control_single,target,distractor,L,ernie_car,Y,2/21/18,11:05,1917
180221_1,1,16,grover_orange,grover_apple,grover_orange,control_double,distractor,target,R,grover_orange,Y,2/21/18,11:05,2990
180221_1,1,17,ernie_teddybear,ernie_flower,ernie_teddybear,inference,distractor,target,R,ernie_teddybear,Y,2/21/18,11:05,2060
180221_1,1,18,grover_ball,grover_ball,grover_truck,control_single,target,distractor,L,grover_ball,Y,2/21/18,11:05,3687
180221_2,2,1,practice1_lion,practice1_cow,practice1_lion,practice,distractor,target,R,practice1_lion,Y,2/21/18,11:19,3977
180221_2,2,2,practice2_rabbit,practice2_rabbit,practice2_monkey,practice,target,distractor,L,practice2_rabbit,Y,2/21/18,11:19,2773
180221_2,2,3,grover_orange2,grover_apple2,grover_orange2,control_single,distractor,target,R,grover_orange2,Y,2/21/18,11:19,2562
180221_2,2,4,bert_dog2,bert_cat2,bert_dog2,inference,distractor,target,R,bert_dog2,Y,2/21/18,11:19,2444
180221_2,2,5,bert_car2,bert_car2,bert_bicycle2,control_double,target,distractor,L,bert_car2,Y,2/21/18,11:19,3403
180221_2,2,6,bert_teddybear2,bert_flower2,bert_teddybear2,control_single,distractor,target,R,bert_teddybear2,Y,2/21/18,11:19,3973
180221_2,2,7,grover_ball2,grover_ball2,grover_truck2,inference,target,distractor,L,grover_ball2,Y,2/21/18,11:19,2408
180221_2,2,8,elmo_cat2,elmo_dog2,elmo_cat2,control_single,distractor,target,R,elmo_cat2,Y,2/21/18,11:19,3192
180221_2,2,9,grover_car2,grover_car2,grover_bicycle2,control_single,target,distractor,L,grover_car2,Y,2/21/18,11:19,2196
180221_2,2,10,grover_carrot2,grover_banana2,grover_carrot2,control_double,distractor,target,R,grover_carrot2,Y,2/21/18,11:19,2916
180221_2,2,11,ernie_apple2,ernie_apple2,ernie_orange2,control_double,target,distractor,L,ernie_apple2,Y,2/21/18,11:19,2676
180221_2,2,12,bert_banana2,bert_banana2,bert_carrot2,control_single,target,distractor,L,bert_banana2,Y,2/21/18,11:19,1847
180221_2,2,13,bert_truck2,bert_ball2,bert_truck2,control_single,distractor,target,R,bert_truck2,Y,2/21/18,11:19,1788
180221_2,2,14,grover_flower2,grover_teddybear2,grover_flower2,inference,distractor,target,R,grover_flower2,Y,2/21/18,11:19,2920
180221_2,2,15,ernie_flower2,ernie_flower2,ernie_teddybear2,control_single,target,distractor,L,ernie_flower2,Y,2/21/18,11:19,2166
180221_2,2,16,ernie_cat2,ernie_cat2,ernie_dog2,control_double,target,distractor,L,ernie_cat2,Y,2/21/18,11:19,3039
180221_2,2,17,ernie_bicycle2,ernie_car2,ernie_bicycle2,inference,distractor,target,R,ernie_bicycle2,Y,2/21/18,11:19,3812
180221_2,2,18,elmo_apple2,elmo_apple2,elmo_orange2,control_single,target,distractor,L,elmo_apple2,Y,2/21/18,11:19,1980
180221_3,1,1,practice1_cow,practice1_cow,practice1_lion,practice,target,distractor,R,practice1_lion,N,2/21/18,11:34,6595
180221_3,1,2,practice2_monkey,practice2_rabbit,practice2_monkey,practice,distractor,target,R,practice2_monkey,Y,2/21/18,11:34,5660
180221_3,1,3,elmo_teddybear,elmo_flower,elmo_teddybear,control_single,distractor,target,L,elmo_flower,N,2/21/18,11:34,6271
180221_3,1,4,elmo_apple,elmo_apple,elmo_orange,inference,target,distractor,R,elmo_orange,N,2/21/18,11:34,3538
180221_3,1,5,grover_dog,grover_cat,grover_dog,control_double,distractor,target,L,grover_cat,N,2/21/18,11:34,2606
180221_3,1,6,elmo_banana,elmo_banana,elmo_carrot,control_single,target,distractor,L,elmo_banana,Y,2/21/18,11:34,2233
180221_3,1,7,grover_car,grover_car,grover_bicycle,inference,target,distractor,L,grover_car,Y,2/21/18,11:34,1984
180221_3,1,8,ernie_orange,ernie_apple,ernie_orange,control_single,distractor,target,R,ernie_orange,Y,2/21/18,11:34,10850
180221_3,1,9,bert_cat,bert_cat,bert_dog,control_single,target,distractor,L,bert_cat,Y,2/21/18,11:34,1929
180221_3,1,10,bert_ball,bert_ball,bert_truck,control_double,target,distractor,R,bert_truck,N,2/21/18,11:34,2171
180221_3,1,11,bert_flower,bert_flower,bert_teddybear,control_double,target,distractor,R,bert_teddybear,N,2/21/18,11:34,3335
180221_3,1,12,elmo_truck,elmo_ball,elmo_truck,control_single,distractor,target,R,elmo_truck,Y,2/21/18,11:34,2077
180221_3,1,13,bert_bicycle,bert_car,bert_bicycle,control_single,distractor,target,L,bert_car,N,2/21/18,11:34,2592
180221_3,1,14,bert_carrot,bert_banana,bert_carrot,inference,distractor,target,L,bert_banana,N,2/21/18,11:34,3083
180221_3,1,15,ernie_car,ernie_car,ernie_bicycle,control_single,target,distractor,L,ernie_car,Y,2/21/18,11:34,1699
180221_3,1,16,grover_orange,grover_apple,grover_orange,control_double,distractor,target,R,grover_orange,Y,2/21/18,11:34,1993
180221_3,1,17,ernie_teddybear,ernie_flower,ernie_teddybear,inference,distractor,target,L,ernie_flower,N,2/21/18,11:34,2402
180221_3,1,18,grover_ball,grover_ball,grover_truck,control_single,target,distractor,R,grover_truck,N,2/21/18,11:34,2534
180221_4,1,1,practice1_cow,practice1_cow,practice1_lion,practice,target,distractor,R,practice1_lion,N,2/21/18,12:36,528
180221_4,1,2,practice2_monkey,practice2_rabbit,practice2_monkey,practice,distractor,target,R,practice2_monkey,Y,2/21/18,12:36,2444
180221_4,1,3,elmo_teddybear,elmo_flower,elmo_teddybear,control_single,distractor,target,L,elmo_flower,N,2/21/18,12:36,1042
180221_4,1,4,elmo_apple,elmo_apple,elmo_orange,inference,target,distractor,L,elmo_apple,Y,2/21/18,12:36,2819
180221_4,1,5,grover_dog,grover_cat,grover_dog,control_double,distractor,target,R,grover_dog,Y,2/21/18,12:36,4485
180221_4,1,6,elmo_banana,elmo_banana,elmo_carrot,control_single,target,distractor,L,elmo_banana,Y,2/21/18,12:36,3504
180221_4,1,7,grover_car,grover_car,grover_bicycle,inference,target,distractor,L,grover_car,Y,2/21/18,12:36,3800
180221_4,1,8,ernie_orange,ernie_apple,ernie_orange,control_single,distractor,target,R,ernie_orange,Y,2/21/18,12:36,3791
180221_4,1,9,bert_cat,bert_cat,bert_dog,control_single,target,distractor,L,bert_cat,Y,2/21/18,12:36,3402
180221_4,1,10,bert_ball,bert_ball,bert_truck,control_double,target,distractor,L,bert_ball,Y,2/21/18,12:36,14163
180221_4,1,11,bert_flower,bert_flower,bert_teddybear,control_double,target,distractor,R,bert_teddybear,N,2/21/18,12:36,3744
180221_4,1,12,elmo_truck,elmo_ball,elmo_truck,control_single,distractor,target,R,elmo_truck,Y,2/21/18,12:36,3317
180221_4,1,13,bert_bicycle,bert_car,bert_bicycle,control_single,distractor,target,R,bert_bicycle,Y,2/21/18,12:36,6529
180221_4,1,14,bert_carrot,bert_banana,bert_carrot,inference,distractor,target,L,bert_banana,N,2/21/18,12:36,4607
180221_4,1,15,ernie_car,ernie_car,ernie_bicycle,control_single,target,distractor,L,ernie_car,Y,2/21/18,12:36,3163
180221_5,1,1,practice1_cow,practice1_cow,practice1_lion,practice,target,distractor,L,practice1_cow,Y,2/21/18,14:24,2694
180221_5,1,2,practice2_monkey,practice2_rabbit,practice2_monkey,practice,distractor,target,R,practice2_monkey,Y,2/21/18,14:24,2579
180221_5,1,3,elmo_teddybear,elmo_flower,elmo_teddybear,control_single,distractor,target,R,elmo_teddybear,Y,2/21/18,14:24,2133
180221_5,1,4,elmo_apple,elmo_apple,elmo_orange,inference,target,distractor,R,elmo_orange,N,2/21/18,14:24,16303
180221_5,1,5,grover_dog,grover_cat,grover_dog,control_double,distractor,target,R,grover_dog,Y,2/21/18,14:24,3210
180221_5,1,6,elmo_banana,elmo_banana,elmo_carrot,control_single,target,distractor,L,elmo_banana,Y,2/21/18,14:24,2166
180221_5,1,7,grover_car,grover_car,grover_bicycle,inference,target,distractor,R,grover_bicycle,N,2/21/18,14:24,6493
180221_5,1,8,ernie_orange,ernie_apple,ernie_orange,control_single,distractor,target,R,ernie_orange,Y,2/21/18,14:24,2306
180221_5,1,9,bert_cat,bert_cat,bert_dog,control_single,target,distractor,L,bert_cat,Y,2/21/18,14:24,4044
180221_5,1,10,bert_ball,bert_ball,bert_truck,control_double,target,distractor,L,bert_ball,Y,2/21/18,14:24,2384
180221_5,1,11,bert_flower,bert_flower,bert_teddybear,control_double,target,distractor,L,bert_flower,Y,2/21/18,14:24,2173
180221_5,1,12,elmo_truck,elmo_ball,elmo_truck,control_single,distractor,target,R,elmo_truck,Y,2/21/18,14:24,5898
180221_5,1,13,bert_bicycle,bert_car,bert_bicycle,control_single,distractor,target,R,bert_bicycle,Y,2/21/18,14:24,1684
180221_5,1,14,bert_carrot,bert_banana,bert_carrot,inference,distractor,target,L,bert_banana,N,2/21/18,14:24,8389
180221_5,1,15,ernie_car,ernie_car,ernie_bicycle,control_single,target,distractor,L,ernie_car,Y,2/21/18,14:24,1736
180221_5,1,16,grover_orange,grover_apple,grover_orange,control_double,distractor,target,R,grover_orange,Y,2/21/18,14:24,1727
180221_5,1,17,ernie_teddybear,ernie_flower,ernie_teddybear,inference,distractor,target,L,ernie_flower,N,2/21/18,14:24,4831
180221_5,1,18,grover_ball,grover_ball,grover_truck,control_single,target,distractor,L,grover_ball,Y,2/21/18,14:24,2354
180221_6,1,1,practice1_cow,practice1_cow,practice1_lion,practice,target,distractor,L,practice1_cow,Y,2/21/18,14:48,3163
180221_6,1,2,practice2_monkey,practice2_rabbit,practice2_monkey,practice,distractor,target,R,practice2_monkey,Y,2/21/18,14:48,2365
180221_6,1,3,elmo_teddybear,elmo_flower,elmo_teddybear,control_single,distractor,target,R,elmo_teddybear,Y,2/21/18,14:48,2065
180221_6,1,4,elmo_apple,elmo_apple,elmo_orange,inference,target,distractor,L,elmo_apple,Y,2/21/18,14:48,2861
180221_6,1,5,grover_dog,grover_cat,grover_dog,control_double,distractor,target,R,grover_dog,Y,2/21/18,14:48,2439
180221_6,1,6,elmo_banana,elmo_banana,elmo_carrot,control_single,target,distractor,L,elmo_banana,Y,2/21/18,14:48,2559
180221_6,1,7,grover_car,grover_car,grover_bicycle,inference,target,distractor,L,grover_car,Y,2/21/18,14:48,2057
180221_6,1,8,ernie_orange,ernie_apple,ernie_orange,control_single,distractor,target,R,ernie_orange,Y,2/21/18,14:48,2040
180221_6,1,9,bert_cat,bert_cat,bert_dog,control_single,target,distractor,L,bert_cat,Y,2/21/18,14:48,2028
180221_6,1,10,bert_ball,bert_ball,bert_truck,control_double,target,distractor,L,bert_ball,Y,2/21/18,14:48,5236
180221_6,1,11,bert_flower,bert_flower,bert_teddybear,control_double,target,distractor,L,bert_flower,Y,2/21/18,14:48,2094
180221_6,1,12,elmo_truck,elmo_ball,elmo_truck,control_single,distractor,target,R,elmo_truck,Y,2/21/18,14:48,1563
180221_6,1,13,bert_bicycle,bert_car,bert_bicycle,control_single,distractor,target,R,bert_bicycle,Y,2/21/18,14:48,1933
180221_6,1,14,bert_carrot,bert_banana,bert_carrot,inference,distractor,target,R,bert_carrot,Y,2/21/18,14:48,1950
180221_6,1,15,ernie_car,ernie_car,ernie_bicycle,control_single,target,distractor,L,ernie_car,Y,2/21/18,14:48,1929
180221_6,1,16,grover_orange,grover_apple,grover_orange,control_double,distractor,target,R,grover_orange,Y,2/21/18,14:48,2421
180221_6,1,17,ernie_teddybear,ernie_flower,ernie_teddybear,inference,distractor,target,R,ernie_teddybear,Y,2/21/18,14:48,1885
180221_6,1,18,grover_ball,grover_ball,grover_truck,control_single,target,distractor,L,grover_ball,Y,2/21/18,14:48,3871
180221_7,2,1,practice1_lion,practice1_cow,practice1_lion,practice,distractor,target,R,practice1_lion,Y,2/21/18,15:25,1932
180221_7,2,2,practice2_rabbit,practice2_rabbit,practice2_monkey,practice,target,distractor,L,practice2_rabbit,Y,2/21/18,15:25,1754
180221_7,2,3,grover_orange2,grover_apple2,grover_orange2,control_single,distractor,target,R,grover_orange2,Y,2/21/18,15:25,2020
180221_7,2,4,bert_dog2,bert_cat2,bert_dog2,inference,distractor,target,R,bert_dog2,Y,2/21/18,15:25,2311
180221_7,2,5,bert_car2,bert_car2,bert_bicycle2,control_double,target,distractor,L,bert_car2,Y,2/21/18,15:25,2031
180221_7,2,6,bert_teddybear2,bert_flower2,bert_teddybear2,control_single,distractor,target,R,bert_teddybear2,Y,2/21/18,15:25,1701
180221_7,2,7,grover_ball2,grover_ball2,grover_truck2,inference,target,distractor,L,grover_ball2,Y,2/21/18,15:25,3189
180221_7,2,8,elmo_cat2,elmo_dog2,elmo_cat2,control_single,distractor,target,R,elmo_cat2,Y,2/21/18,15:25,2824
180221_7,2,9,grover_car2,grover_car2,grover_bicycle2,control_single,target,distractor,L,grover_car2,Y,2/21/18,15:25,2004
180221_7,2,10,grover_carrot2,grover_banana2,grover_carrot2,control_double,distractor,target,R,grover_carrot2,Y,2/21/18,15:25,2366
180221_7,2,11,ernie_apple2,ernie_apple2,ernie_orange2,control_double,target,distractor,L,ernie_apple2,Y,2/21/18,15:25,2037
180221_7,2,12,bert_banana2,bert_banana2,bert_carrot2,control_single,target,distractor,L,bert_banana2,Y,2/21/18,15:25,1700
180221_7,2,13,bert_truck2,bert_ball2,bert_truck2,control_single,distractor,target,R,bert_truck2,Y,2/21/18,15:25,1783
180221_7,2,14,grover_flower2,grover_teddybear2,grover_flower2,inference,distractor,target,R,grover_flower2,Y,2/21/18,15:25,1622
180221_7,2,15,ernie_flower2,ernie_flower2,ernie_teddybear2,control_single,target,distractor,L,ernie_flower2,Y,2/21/18,15:25,1437
180221_7,2,16,ernie_cat2,ernie_cat2,ernie_dog2,control_double,target,distractor,L,ernie_cat2,Y,2/21/18,15:25,2230
180221_7,2,17,ernie_bicycle2,ernie_car2,ernie_bicycle2,inference,distractor,target,R,ernie_bicycle2,Y,2/21/18,15:25,1451
180221_7,2,18,elmo_apple2,elmo_apple2,elmo_orange2,control_single,target,distractor,L,elmo_apple2,Y,2/21/18,15:25,2076
180222_1,1,1,practice1_cow,practice1_cow,practice1_lion,practice,target,distractor,L,practice1_cow,Y,2/22/18,10:18,3592
180222_1,1,2,practice2_monkey,practice2_rabbit,practice2_monkey,practice,distractor,target,R,practice2_monkey,Y,2/22/18,10:18,2691
180222_1,1,3,elmo_teddybear,elmo_flower,elmo_teddybear,control_single,distractor,target,R,elmo_teddybear,Y,2/22/18,10:18,3029
180222_1,1,4,elmo_apple,elmo_apple,elmo_orange,inference,target,distractor,R,elmo_orange,N,2/22/18,10:18,7030
180222_1,1,5,grover_dog,grover_cat,grover_dog,control_double,distractor,target,R,grover_dog,Y,2/22/18,10:18,16002
180222_1,1,6,elmo_banana,elmo_banana,elmo_carrot,control_single,target,distractor,L,elmo_banana,Y,2/22/18,10:18,2698
180222_1,1,7,grover_car,grover_car,grover_bicycle,inference,target,distractor,L,grover_car,Y,2/22/18,10:18,6126
180222_1,1,8,ernie_orange,ernie_apple,ernie_orange,control_single,distractor,target,R,ernie_orange,Y,2/22/18,10:18,2618
180222_1,1,9,bert_cat,bert_cat,bert_dog,control_single,target,distractor,L,bert_cat,Y,2/22/18,10:18,4046
180222_1,1,10,bert_ball,bert_ball,bert_truck,control_double,target,distractor,L,bert_ball,Y,2/22/18,10:18,5019
180222_1,1,11,bert_flower,bert_flower,bert_teddybear,control_double,target,distractor,L,bert_flower,Y,2/22/18,10:18,2899
180222_1,1,12,elmo_truck,elmo_ball,elmo_truck,control_single,distractor,target,R,elmo_truck,Y,2/22/18,10:18,3138